practice,count_trial_sequence,datetime,correct,display_size,distractor,response_time,isRandom,PARTICIPANT,RT,BLOCK
yes,0,11/30/17 15:38,0,5,present,2000.052697,blocked,3096,2000.052697,1p
yes,1,11/30/17 15:38,0,5,present,1286.042687,blocked,3096,1286.042687,1p
yes,2,11/30/17 15:38,0,5,present,537.0300666,blocked,3096,537.0300666,1p
yes,3,11/30/17 15:38,0,5,present,666.6725979,blocked,3096,666.6725979,1p
yes,4,11/30/17 15:38,1,5,present,1014.64764,blocked,3096,1014.64764,1p
yes,5,11/30/17 15:38,0,5,present,1054.482268,blocked,3096,1054.482268,1p
yes,6,11/30/17 15:38,1,5,present,708.3047322,blocked,3096,708.3047322,1p
yes,7,11/30/17 15:38,1,5,present,718.1915301,blocked,3096,718.1915301,1p
yes,8,11/30/17 15:38,1,5,present,845.9571678,blocked,3096,845.9571678,1p
yes,9,11/30/17 15:38,1,5,present,1058.289779,blocked,3096,1058.289779,1p
yes,10,11/30/17 15:38,1,5,present,681.624442,blocked,3096,681.624442,1p
yes,11,11/30/17 15:38,1,5,present,1231.896104,blocked,3096,1231.896104,1p
no,12,11/30/17 15:38,1,5,present,780.0489464,blocked,3096,780.0489464,1
no,13,11/30/17 15:38,1,5,present,657.2326958,blocked,3096,657.2326958,1
no,14,11/30/17 15:38,1,5,present,567.1907369,blocked,3096,567.1907369,1
no,15,11/30/17 15:38,0,5,present,810.0607655,blocked,3096,810.0607655,1
no,16,11/30/17 15:38,1,5,present,790.707375,blocked,3096,790.707375,1
no,17,11/30/17 15:38,1,5,present,800.6691117,blocked,3096,800.6691117,1
no,18,11/30/17 15:38,1,5,present,555.5707638,blocked,3096,555.5707638,1
no,19,11/30/17 15:38,1,5,present,642.4320982,blocked,3096,642.4320982,1
no,20,11/30/17 15:38,1,5,present,606.3471511,blocked,3096,606.3471511,1
no,21,11/30/17 15:38,1,5,present,804.1464121,blocked,3096,804.1464121,1
no,22,11/30/17 15:38,1,5,present,571.037941,blocked,3096,571.037941,1
no,23,11/30/17 15:38,1,5,present,630.9363389,blocked,3096,630.9363389,1
no,24,11/30/17 15:38,1,5,present,513.5670149,blocked,3096,513.5670149,1
no,25,11/30/17 15:38,1,5,present,519.5847086,blocked,3096,519.5847086,1
no,26,11/30/17 15:38,1,5,present,539.4332431,blocked,3096,539.4332431,1
no,27,11/30/17 15:38,1,5,present,578.0479759,blocked,3096,578.0479759,1
no,28,11/30/17 15:38,1,5,present,677.4610575,blocked,3096,677.4610575,1
no,29,11/30/17 15:38,1,5,present,677.779291,blocked,3096,677.779291,1
no,30,11/30/17 15:38,1,5,present,536.7973797,blocked,3096,536.7973797,1
no,31,11/30/17 15:38,1,5,present,537.6826164,blocked,3096,537.6826164,1
no,32,11/30/17 15:38,1,5,present,618.6881113,blocked,3096,618.6881113,1
no,33,11/30/17 15:38,1,5,present,579.3602616,blocked,3096,579.3602616,1
no,34,11/30/17 15:38,1,5,present,616.0447197,blocked,3096,616.0447197,1
no,35,11/30/17 15:38,1,5,present,871.0233638,blocked,3096,871.0233638,1
no,36,11/30/17 15:38,1,5,present,647.8088765,blocked,3096,647.8088765,1
no,37,11/30/17 15:38,1,5,present,721.7622474,blocked,3096,721.7622474,1
no,38,11/30/17 15:38,0,5,present,375.6733377,blocked,3096,375.6733377,1
no,39,11/30/17 15:38,1,5,present,510.3703075,blocked,3096,510.3703075,1
no,40,11/30/17 15:38,1,5,present,551.4528901,blocked,3096,551.4528901,1
no,41,11/30/17 15:38,1,5,present,575.9616642,blocked,3096,575.9616642,1
no,42,11/30/17 15:38,1,5,present,702.8136637,blocked,3096,702.8136637,1
no,43,11/30/17 15:38,1,5,present,564.9750786,blocked,3096,564.9750786,1
no,44,11/30/17 15:38,1,5,present,528.7672864,blocked,3096,528.7672864,1
no,45,11/30/17 15:38,1,5,present,527.6267784,blocked,3096,527.6267784,1
no,46,11/30/17 15:38,1,5,present,575.2263051,blocked,3096,575.2263051,1
no,47,11/30/17 15:38,1,5,present,864.1094833,blocked,3096,864.1094833,1
no,48,11/30/17 15:38,0,5,present,662.9745872,blocked,3096,662.9745872,1
no,49,11/30/17 15:38,0,5,present,635.0983547,blocked,3096,635.0983547,1
no,50,11/30/17 15:38,1,5,present,983.6978875,blocked,3096,983.6978875,1
no,51,11/30/17 15:38,1,5,present,603.6325847,blocked,3096,603.6325847,1
no,52,11/30/17 15:38,1,5,present,523.3121474,blocked,3096,523.3121474,1
no,53,11/30/17 15:38,1,5,present,625.4877015,blocked,3096,625.4877015,1
no,54,11/30/17 15:38,1,5,present,616.4632139,blocked,3096,616.4632139,1
no,55,11/30/17 15:38,1,5,present,593.6557917,blocked,3096,593.6557917,1
no,56,11/30/17 15:38,1,5,present,678.1426932,blocked,3096,678.1426932,1
no,57,11/30/17 15:38,1,5,present,604.7450333,blocked,3096,604.7450333,1
no,58,11/30/17 15:38,1,5,present,592.4273418,blocked,3096,592.4273418,1
no,59,11/30/17 15:38,1,5,present,520.2269929,blocked,3096,520.2269929,1
no,60,11/30/17 15:38,1,5,present,577.3413606,blocked,3096,577.3413606,1
no,61,11/30/17 15:38,1,5,present,645.019029,blocked,3096,645.019029,1
no,62,11/30/17 15:38,1,5,present,903.8318741,blocked,3096,903.8318741,1
no,63,11/30/17 15:38,1,5,present,608.8718039,blocked,3096,608.8718039,1
no,64,11/30/17 15:38,1,5,present,593.6013841,blocked,3096,593.6013841,1
no,65,11/30/17 15:38,1,5,present,683.7412084,blocked,3096,683.7412084,1
no,66,11/30/17 15:38,1,5,present,465.4815832,blocked,3096,465.4815832,1
no,67,11/30/17 15:38,1,5,present,604.4110592,blocked,3096,604.4110592,1
no,68,11/30/17 15:38,1,5,present,569.0987694,blocked,3096,569.0987694,1
no,69,11/30/17 15:38,1,5,present,639.0081789,blocked,3096,639.0081789,1
no,70,11/30/17 15:38,1,5,present,537.0529931,blocked,3096,537.0529931,1
no,71,11/30/17 15:38,1,5,present,544.7022326,blocked,3096,544.7022326,1
no,72,11/30/17 15:38,1,5,present,535.9391756,blocked,3096,535.9391756,1
no,73,11/30/17 15:38,1,5,present,806.4301655,blocked,3096,806.4301655,1
no,74,11/30/17 15:38,1,5,present,565.4079446,blocked,3096,565.4079446,1
no,75,11/30/17 15:38,1,5,present,751.2228039,blocked,3096,751.2228039,1
no,76,11/30/17 15:38,1,5,present,505.1239023,blocked,3096,505.1239023,1
no,77,11/30/17 15:38,1,5,present,729.9767792,blocked,3096,729.9767792,1
no,78,11/30/17 15:38,1,5,present,543.6636963,blocked,3096,543.6636963,1
no,79,11/30/17 15:38,1,5,present,641.8312185,blocked,3096,641.8312185,1
no,80,11/30/17 15:38,1,5,present,743.8281511,blocked,3096,743.8281511,1
no,81,11/30/17 15:38,1,5,present,542.34662,blocked,3096,542.34662,1
no,82,11/30/17 15:38,1,5,present,550.229573,blocked,3096,550.229573,1
no,83,11/30/17 15:38,1,5,present,709.6474725,blocked,3096,709.6474725,1
no,84,11/30/17 15:38,1,5,present,508.0478869,blocked,3096,508.0478869,1
no,85,11/30/17 15:38,1,5,present,702.6360688,blocked,3096,702.6360688,1
no,86,11/30/17 15:38,1,5,present,638.5239849,blocked,3096,638.5239849,1
no,87,11/30/17 15:38,1,5,present,494.46958,blocked,3096,494.46958,1
no,88,11/30/17 15:38,1,5,present,555.684712,blocked,3096,555.684712,1
no,89,11/30/17 15:38,0,5,present,490.147763,blocked,3096,490.147763,1
no,90,11/30/17 15:38,1,5,present,894.2622833,blocked,3096,894.2622833,1
no,91,11/30/17 15:38,1,5,present,680.2095003,blocked,3096,680.2095003,1
no,92,11/30/17 15:38,1,5,present,637.63122,blocked,3096,637.63122,1
no,93,11/30/17 15:38,1,5,present,609.8063155,blocked,3096,609.8063155,1
no,94,11/30/17 15:38,1,5,present,1201.295382,blocked,3096,1201.295382,1
no,95,11/30/17 15:38,1,5,present,667.4418334,blocked,3096,667.4418334,1
no,96,11/30/17 15:38,1,5,present,518.7586702,blocked,3096,518.7586702,1
no,97,11/30/17 15:38,1,5,present,637.284585,blocked,3096,637.284585,1
no,98,11/30/17 15:38,1,5,present,540.6096807,blocked,3096,540.6096807,1
no,99,11/30/17 15:38,1,5,present,854.975496,blocked,3096,854.975496,1
no,100,11/30/17 15:38,1,5,present,785.2662657,blocked,3096,785.2662657,1
no,101,11/30/17 15:38,1,5,present,583.3700043,blocked,3096,583.3700043,1
no,102,11/30/17 15:38,1,5,present,680.4428716,blocked,3096,680.4428716,1
no,103,11/30/17 15:38,1,5,present,557.2645876,blocked,3096,557.2645876,1
no,104,11/30/17 15:38,1,5,present,602.6792527,blocked,3096,602.6792527,1
no,105,11/30/17 15:38,1,5,present,736.4543718,blocked,3096,736.4543718,1
no,106,11/30/17 15:38,1,5,present,699.4362818,blocked,3096,699.4362818,1
no,107,11/30/17 15:38,1,5,present,639.3394156,blocked,3096,639.3394156,1
no,108,11/30/17 15:38,1,5,present,760.4450753,blocked,3096,760.4450753,1
no,109,11/30/17 15:38,1,5,present,577.1370752,blocked,3096,577.1370752,1
no,110,11/30/17 15:38,0,5,present,545.0680301,blocked,3096,545.0680301,1
no,111,11/30/17 15:38,1,5,present,1358.912695,blocked,3096,1358.912695,1
yes,112,11/30/17 15:38,1,9,present,797.1716223,blocked,3096,797.1716223,2p
yes,113,11/30/17 15:38,1,9,present,483.7783014,blocked,3096,483.7783014,2p
yes,114,11/30/17 15:38,1,9,present,424.7292106,blocked,3096,424.7292106,2p
yes,115,11/30/17 15:38,1,9,present,526.8811538,blocked,3096,526.8811538,2p
yes,116,11/30/17 15:38,1,9,present,535.1316152,blocked,3096,535.1316152,2p
yes,117,11/30/17 15:38,1,9,present,557.2156549,blocked,3096,557.2156549,2p
yes,118,11/30/17 15:38,1,9,present,441.0621199,blocked,3096,441.0621199,2p
yes,119,11/30/17 15:38,1,9,present,517.4539126,blocked,3096,517.4539126,2p
yes,120,11/30/17 15:38,1,9,present,504.646552,blocked,3096,504.646552,2p
yes,121,11/30/17 15:38,1,9,present,549.9938064,blocked,3096,549.9938064,2p
yes,122,11/30/17 15:38,1,9,present,790.676236,blocked,3096,790.676236,2p
yes,123,11/30/17 15:38,1,9,present,616.083729,blocked,3096,616.083729,2p
no,124,11/30/17 15:38,1,9,present,737.8826587,blocked,3096,737.8826587,2
no,125,11/30/17 15:38,0,9,present,614.7320918,blocked,3096,614.7320918,2
no,126,11/30/17 15:38,1,9,present,555.719615,blocked,3096,555.719615,2
no,127,11/30/17 15:38,1,9,present,399.2629985,blocked,3096,399.2629985,2
no,128,11/30/17 15:38,0,9,present,550.2364167,blocked,3096,550.2364167,2
no,129,11/30/17 15:38,1,9,present,457.0312848,blocked,3096,457.0312848,2
no,130,11/30/17 15:38,1,9,present,591.5160989,blocked,3096,591.5160989,2
no,131,11/30/17 15:38,1,9,present,550.1299967,blocked,3096,550.1299967,2
no,132,11/30/17 15:38,1,9,present,483.6325299,blocked,3096,483.6325299,2
no,133,11/30/17 15:38,1,9,present,529.2275274,blocked,3096,529.2275274,2
no,134,11/30/17 15:38,1,9,present,553.5029302,blocked,3096,553.5029302,2
no,135,11/30/17 15:38,1,9,present,503.3246851,blocked,3096,503.3246851,2
no,136,11/30/17 15:38,1,9,present,696.9431101,blocked,3096,696.9431101,2
no,137,11/30/17 15:38,1,9,present,398.0454985,blocked,3096,398.0454985,2
no,138,11/30/17 15:38,1,9,present,430.5477518,blocked,3096,430.5477518,2
no,139,11/30/17 15:38,1,9,present,522.6527538,blocked,3096,522.6527538,2
no,140,11/30/17 15:38,1,9,present,496.5699214,blocked,3096,496.5699214,2
no,141,11/30/17 15:38,0,9,present,408.386378,blocked,3096,408.386378,2
no,142,11/30/17 15:38,1,9,present,373.1421833,blocked,3096,373.1421833,2
no,143,11/30/17 15:38,1,9,present,565.9003512,blocked,3096,565.9003512,2
no,144,11/30/17 15:38,1,9,present,456.0954044,blocked,3096,456.0954044,2
no,145,11/30/17 15:38,1,9,present,751.0794277,blocked,3096,751.0794277,2
no,146,11/30/17 15:38,1,9,present,481.953078,blocked,3096,481.953078,2
no,147,11/30/17 15:38,1,9,present,333.6552169,blocked,3096,333.6552169,2
no,148,11/30/17 15:38,0,9,present,402.5353291,blocked,3096,402.5353291,2
no,149,11/30/17 15:38,1,9,present,451.064919,blocked,3096,451.064919,2
no,150,11/30/17 15:38,1,9,present,1332.161572,blocked,3096,1332.161572,2
no,151,11/30/17 15:38,0,9,present,562.6334956,blocked,3096,562.6334956,2
no,152,11/30/17 15:38,1,9,present,511.7606117,blocked,3096,511.7606117,2
no,153,11/30/17 15:38,1,9,present,569.7626115,blocked,3096,569.7626115,2
no,154,11/30/17 15:38,1,9,present,613.689107,blocked,3096,613.689107,2
no,155,11/30/17 15:38,1,9,present,705.4704005,blocked,3096,705.4704005,2
no,156,11/30/17 15:38,0,9,present,475.674638,blocked,3096,475.674638,2
no,157,11/30/17 15:38,1,9,present,985.0330997,blocked,3096,985.0330997,2
no,158,11/30/17 15:38,1,9,present,582.003311,blocked,3096,582.003311,2
no,159,11/30/17 15:38,1,9,present,467.8621755,blocked,3096,467.8621755,2
no,160,11/30/17 15:38,1,9,present,426.4007922,blocked,3096,426.4007922,2
no,161,11/30/17 15:38,1,9,present,523.6365403,blocked,3096,523.6365403,2
no,162,11/30/17 15:38,1,9,present,481.7316833,blocked,3096,481.7316833,2
no,163,11/30/17 15:38,1,9,present,451.3503026,blocked,3096,451.3503026,2
no,164,11/30/17 15:38,0,9,present,459.2329134,blocked,3096,459.2329134,2
no,165,11/30/17 15:38,1,9,present,494.4093551,blocked,3096,494.4093551,2
no,166,11/30/17 15:38,1,9,present,510.7785361,blocked,3096,510.7785361,2
no,167,11/30/17 15:38,1,9,present,745.6403714,blocked,3096,745.6403714,2
no,168,11/30/17 15:38,1,9,present,456.452305,blocked,3096,456.452305,2
no,169,11/30/17 15:38,1,9,present,524.3732681,blocked,3096,524.3732681,2
no,170,11/30/17 15:38,1,9,present,419.2042656,blocked,3096,419.2042656,2
no,171,11/30/17 15:38,1,9,present,526.3415255,blocked,3096,526.3415255,2
no,172,11/30/17 15:38,0,9,present,351.9837584,blocked,3096,351.9837584,2
no,173,11/30/17 15:38,1,9,present,840.8202624,blocked,3096,840.8202624,2
no,174,11/30/17 15:38,1,9,present,415.7912963,blocked,3096,415.7912963,2
no,175,11/30/17 15:38,1,9,present,377.4752924,blocked,3096,377.4752924,2
no,176,11/30/17 15:38,1,9,present,358.2440625,blocked,3096,358.2440625,2
no,177,11/30/17 15:38,1,9,present,550.3623414,blocked,3096,550.3623414,2
no,178,11/30/17 15:38,0,9,present,362.8030148,blocked,3096,362.8030148,2
no,179,11/30/17 15:38,1,9,present,736.0085026,blocked,3096,736.0085026,2
no,180,11/30/17 15:38,1,9,present,374.9739083,blocked,3096,374.9739083,2
no,181,11/30/17 15:38,1,9,present,477.4625631,blocked,3096,477.4625631,2
no,182,11/30/17 15:38,1,9,present,523.4124081,blocked,3096,523.4124081,2
no,183,11/30/17 15:38,1,9,present,440.2241049,blocked,3096,440.2241049,2
no,184,11/30/17 15:38,1,9,present,589.3774325,blocked,3096,589.3774325,2
no,185,11/30/17 15:38,1,9,present,579.1070435,blocked,3096,579.1070435,2
no,186,11/30/17 15:38,1,9,present,425.2513874,blocked,3096,425.2513874,2
no,187,11/30/17 15:38,1,9,present,447.9588911,blocked,3096,447.9588911,2
no,188,11/30/17 15:38,1,9,present,565.8452591,blocked,3096,565.8452591,2
no,189,11/30/17 15:38,1,9,present,645.5148574,blocked,3096,645.5148574,2
no,190,11/30/17 15:38,1,9,present,524.5385442,blocked,3096,524.5385442,2
no,191,11/30/17 15:38,1,9,present,454.3064528,blocked,3096,454.3064528,2
no,192,11/30/17 15:38,1,9,present,482.9902456,blocked,3096,482.9902456,2
no,193,11/30/17 15:38,1,9,present,451.068683,blocked,3096,451.068683,2
no,194,11/30/17 15:38,1,9,present,435.9809908,blocked,3096,435.9809908,2
no,195,11/30/17 15:38,1,9,present,535.7496043,blocked,3096,535.7496043,2
no,196,11/30/17 15:38,0,9,present,439.5499972,blocked,3096,439.5499972,2
no,197,11/30/17 15:38,1,9,present,454.6003911,blocked,3096,454.6003911,2
no,198,11/30/17 15:38,1,9,present,550.6367751,blocked,3096,550.6367751,2
no,199,11/30/17 15:38,1,9,present,704.2087585,blocked,3096,704.2087585,2
no,200,11/30/17 15:38,1,9,present,484.9769811,blocked,3096,484.9769811,2
no,201,11/30/17 15:38,0,9,present,489.2765559,blocked,3096,489.2765559,2
no,202,11/30/17 15:38,1,9,present,551.9959403,blocked,3096,551.9959403,2
no,203,11/30/17 15:38,1,9,present,453.8643477,blocked,3096,453.8643477,2
no,204,11/30/17 15:38,1,9,present,512.4638052,blocked,3096,512.4638052,2
no,205,11/30/17 15:38,1,9,present,525.3190719,blocked,3096,525.3190719,2
no,206,11/30/17 15:38,1,9,present,820.221997,blocked,3096,820.221997,2
no,207,11/30/17 15:38,1,9,present,552.3148582,blocked,3096,552.3148582,2
no,208,11/30/17 15:38,1,9,present,416.7285454,blocked,3096,416.7285454,2
no,209,11/30/17 15:38,1,9,present,553.7380123,blocked,3096,553.7380123,2
no,210,11/30/17 15:38,1,9,present,430.8851478,blocked,3096,430.8851478,2
no,211,11/30/17 15:38,1,9,present,410.3573729,blocked,3096,410.3573729,2
no,212,11/30/17 15:38,1,9,present,537.5635355,blocked,3096,537.5635355,2
no,213,11/30/17 15:38,1,9,present,424.3579381,blocked,3096,424.3579381,2
no,214,11/30/17 15:38,1,9,present,448.1446984,blocked,3096,448.1446984,2
no,215,11/30/17 15:38,1,9,present,568.0906877,blocked,3096,568.0906877,2
no,216,11/30/17 15:38,1,9,present,563.7127521,blocked,3096,563.7127521,2
no,217,11/30/17 15:38,1,9,present,521.2258356,blocked,3096,521.2258356,2
no,218,11/30/17 15:38,1,9,present,654.7966693,blocked,3096,654.7966693,2
no,219,11/30/17 15:38,1,9,present,455.286133,blocked,3096,455.286133,2
no,220,11/30/17 15:38,0,9,present,472.4854588,blocked,3096,472.4854588,2
no,221,11/30/17 15:38,1,9,present,467.0262135,blocked,3096,467.0262135,2
no,222,11/30/17 15:38,1,9,present,506.0851045,blocked,3096,506.0851045,2
no,223,11/30/17 15:38,1,9,present,461.6904977,blocked,3096,461.6904977,2
yes,224,11/30/17 15:38,1,5,absent,520.0637699,blocked,3096,520.0637699,3p
yes,225,11/30/17 15:38,0,5,absent,341.5172965,blocked,3096,341.5172965,3p
yes,226,11/30/17 15:38,1,5,absent,508.6525307,blocked,3096,508.6525307,3p
yes,227,11/30/17 15:38,0,5,absent,419.6911971,blocked,3096,419.6911971,3p
yes,228,11/30/17 15:38,1,5,absent,618.8694702,blocked,3096,618.8694702,3p
yes,229,11/30/17 15:38,1,5,absent,744.7020958,blocked,3096,744.7020958,3p
yes,230,11/30/17 15:38,0,5,absent,359.3647237,blocked,3096,359.3647237,3p
yes,231,11/30/17 15:38,1,5,absent,845.0698779,blocked,3096,845.0698779,3p
yes,232,11/30/17 15:38,1,5,absent,489.1646609,blocked,3096,489.1646609,3p
yes,233,11/30/17 15:38,1,5,absent,534.6789023,blocked,3096,534.6789023,3p
yes,234,11/30/17 15:38,1,5,absent,483.6551142,blocked,3096,483.6551142,3p
yes,235,11/30/17 15:38,1,5,absent,796.6426018,blocked,3096,796.6426018,3p
no,236,11/30/17 15:38,1,5,absent,729.7406704,blocked,3096,729.7406704,3
no,237,11/30/17 15:38,1,5,absent,473.8004819,blocked,3096,473.8004819,3
no,238,11/30/17 15:38,0,5,absent,475.4775385,blocked,3096,475.4775385,3
no,239,11/30/17 15:38,1,5,absent,628.2861036,blocked,3096,628.2861036,3
no,240,11/30/17 15:38,1,5,absent,481.2707579,blocked,3096,481.2707579,3
no,241,11/30/17 15:38,1,5,absent,710.9241708,blocked,3096,710.9241708,3
no,242,11/30/17 15:38,1,5,absent,461.1755068,blocked,3096,461.1755068,3
no,243,11/30/17 15:38,1,5,absent,410.8805762,blocked,3096,410.8805762,3
no,244,11/30/17 15:38,1,5,absent,498.6028521,blocked,3096,498.6028521,3
no,245,11/30/17 15:38,1,5,absent,456.8954367,blocked,3096,456.8954367,3
no,246,11/30/17 15:38,1,5,absent,474.4923833,blocked,3096,474.4923833,3
no,247,11/30/17 15:38,1,5,absent,418.6064656,blocked,3096,418.6064656,3
no,248,11/30/17 15:38,1,5,absent,474.5033332,blocked,3096,474.5033332,3
no,249,11/30/17 15:38,1,5,absent,564.2092649,blocked,3096,564.2092649,3
no,250,11/30/17 15:38,1,5,absent,600.9443666,blocked,3096,600.9443666,3
no,251,11/30/17 15:38,1,5,absent,469.592271,blocked,3096,469.592271,3
no,252,11/30/17 15:38,1,5,absent,383.7978745,blocked,3096,383.7978745,3
no,253,11/30/17 15:38,1,5,absent,498.4570806,blocked,3096,498.4570806,3
no,254,11/30/17 15:38,1,5,absent,381.2677466,blocked,3096,381.2677466,3
no,255,11/30/17 15:38,1,5,absent,511.3130316,blocked,3096,511.3130316,3
no,256,11/30/17 15:38,1,5,absent,412.2797773,blocked,3096,412.2797773,3
no,257,11/30/17 15:38,1,5,absent,375.0584284,blocked,3096,375.0584284,3
no,258,11/30/17 15:38,0,5,absent,331.7571077,blocked,3096,331.7571077,3
no,259,11/30/17 15:38,1,5,absent,621.4748791,blocked,3096,621.4748791,3
no,260,11/30/17 15:38,1,5,absent,389.5339487,blocked,3096,389.5339487,3
no,261,11/30/17 15:38,1,5,absent,471.3788273,blocked,3096,471.3788273,3
no,262,11/30/17 15:38,1,5,absent,403.1009635,blocked,3096,403.1009635,3
no,263,11/30/17 15:38,1,5,absent,399.208933,blocked,3096,399.208933,3
no,264,11/30/17 15:38,1,5,absent,559.2390043,blocked,3096,559.2390043,3
no,265,11/30/17 15:38,1,5,absent,521.7743608,blocked,3096,521.7743608,3
no,266,11/30/17 15:38,1,5,absent,466.7007941,blocked,3096,466.7007941,3
no,267,11/30/17 15:38,1,5,absent,342.5595969,blocked,3096,342.5595969,3
no,268,11/30/17 15:38,1,5,absent,355.6277037,blocked,3096,355.6277037,3
no,269,11/30/17 15:38,1,5,absent,363.5585629,blocked,3096,363.5585629,3
no,270,11/30/17 15:38,1,5,absent,403.1030167,blocked,3096,403.1030167,3
no,271,11/30/17 15:38,0,5,absent,310.0416031,blocked,3096,310.0416031,3
no,272,11/30/17 15:38,1,5,absent,387.6392614,blocked,3096,387.6392614,3
no,273,11/30/17 15:38,1,5,absent,583.7046628,blocked,3096,583.7046628,3
no,274,11/30/17 15:38,1,5,absent,386.4552957,blocked,3096,386.4552957,3
no,275,11/30/17 15:38,1,5,absent,361.6299991,blocked,3096,361.6299991,3
no,276,11/30/17 15:38,0,5,absent,350.4832701,blocked,3096,350.4832701,3
no,277,11/30/17 15:38,1,5,absent,394.2941067,blocked,3096,394.2941067,3
no,278,11/30/17 15:38,1,5,absent,475.2369813,blocked,3096,475.2369813,3
no,279,11/30/17 15:38,1,5,absent,607.9858828,blocked,3096,607.9858828,3
no,280,11/30/17 15:38,1,5,absent,638.8021826,blocked,3096,638.8021826,3
no,281,11/30/17 15:38,1,5,absent,421.5506392,blocked,3096,421.5506392,3
no,282,11/30/17 15:38,0,5,absent,357.2277683,blocked,3096,357.2277683,3
no,283,11/30/17 15:38,1,5,absent,449.2242972,blocked,3096,449.2242972,3
no,284,11/30/17 15:38,1,5,absent,536.2909435,blocked,3096,536.2909435,3
no,285,11/30/17 15:38,1,5,absent,464.9409283,blocked,3096,464.9409283,3
no,286,11/30/17 15:38,1,5,absent,457.1387314,blocked,3096,457.1387314,3
no,287,11/30/17 15:38,1,5,absent,416.6566862,blocked,3096,416.6566862,3
no,288,11/30/17 15:38,1,5,absent,459.0183624,blocked,3096,459.0183624,3
no,289,11/30/17 15:38,1,5,absent,368.5305343,blocked,3096,368.5305343,3
no,290,11/30/17 15:38,1,5,absent,689.4324561,blocked,3096,689.4324561,3
no,291,11/30/17 15:38,1,5,absent,447.2550132,blocked,3096,447.2550132,3
no,292,11/30/17 15:38,1,5,absent,446.3153688,blocked,3096,446.3153688,3
no,293,11/30/17 15:38,1,5,absent,456.815365,blocked,3096,456.815365,3
no,294,11/30/17 15:38,0,5,absent,433.7974981,blocked,3096,433.7974981,3
no,295,11/30/17 15:38,1,5,absent,641.7720202,blocked,3096,641.7720202,3
no,296,11/30/17 15:38,0,5,absent,730.7696256,blocked,3096,730.7696256,3
no,297,11/30/17 15:38,1,5,absent,428.6595661,blocked,3096,428.6595661,3
no,298,11/30/17 15:38,1,5,absent,412.8669695,blocked,3096,412.8669695,3
no,299,11/30/17 15:38,1,5,absent,653.3718042,blocked,3096,653.3718042,3
no,300,11/30/17 15:38,1,5,absent,559.4282336,blocked,3096,559.4282336,3
no,301,11/30/17 15:38,1,5,absent,494.7659136,blocked,3096,494.7659136,3
no,302,11/30/17 15:38,1,5,absent,583.7867876,blocked,3096,583.7867876,3
no,303,11/30/17 15:38,1,5,absent,648.6414165,blocked,3096,648.6414165,3
no,304,11/30/17 15:38,1,5,absent,428.6274005,blocked,3096,428.6274005,3
no,305,11/30/17 15:38,1,5,absent,403.6402496,blocked,3096,403.6402496,3
no,306,11/30/17 15:38,1,5,absent,419.4615899,blocked,3096,419.4615899,3
no,307,11/30/17 15:38,0,5,absent,411.1488505,blocked,3096,411.1488505,3
no,308,11/30/17 15:38,1,5,absent,554.0877271,blocked,3096,554.0877271,3
no,309,11/30/17 15:38,1,5,absent,554.6417272,blocked,3096,554.6417272,3
no,310,11/30/17 15:38,1,5,absent,515.624583,blocked,3096,515.624583,3
no,311,11/30/17 15:38,1,5,absent,396.4964197,blocked,3096,396.4964197,3
no,312,11/30/17 15:38,0,5,absent,426.4760733,blocked,3096,426.4760733,3
no,313,11/30/17 15:38,1,5,absent,614.2626118,blocked,3096,614.2626118,3
no,314,11/30/17 15:38,1,5,absent,540.3999203,blocked,3096,540.3999203,3
no,315,11/30/17 15:38,1,5,absent,355.9000843,blocked,3096,355.9000843,3
no,316,11/30/17 15:38,1,5,absent,540.0036682,blocked,3096,540.0036682,3
no,317,11/30/17 15:38,0,5,absent,452.8552393,blocked,3096,452.8552393,3
no,318,11/30/17 15:38,1,5,absent,475.520654,blocked,3096,475.520654,3
no,319,11/30/17 15:38,1,5,absent,493.2544753,blocked,3096,493.2544753,3
no,320,11/30/17 15:38,1,5,absent,491.258843,blocked,3096,491.258843,3
no,321,11/30/17 15:38,1,5,absent,492.1163626,blocked,3096,492.1163626,3
no,322,11/30/17 15:38,1,5,absent,725.0119937,blocked,3096,725.0119937,3
no,323,11/30/17 15:38,1,5,absent,579.1706902,blocked,3096,579.1706902,3
no,324,11/30/17 15:38,1,5,absent,544.6580906,blocked,3096,544.6580906,3
no,325,11/30/17 15:38,1,5,absent,607.7511427,blocked,3096,607.7511427,3
no,326,11/30/17 15:38,1,5,absent,452.9736359,blocked,3096,452.9736359,3
no,327,11/30/17 15:38,1,5,absent,964.0758806,blocked,3096,964.0758806,3
no,328,11/30/17 15:38,1,5,absent,470.8662317,blocked,3096,470.8662317,3
no,329,11/30/17 15:38,1,5,absent,470.844674,blocked,3096,470.844674,3
no,330,11/30/17 15:38,1,5,absent,527.6459409,blocked,3096,527.6459409,3
no,331,11/30/17 15:38,1,5,absent,501.1914938,blocked,3096,501.1914938,3
no,332,11/30/17 15:38,1,5,absent,643.5448891,blocked,3096,643.5448891,3
no,333,11/30/17 15:38,1,5,absent,569.2394081,blocked,3096,569.2394081,3
no,334,11/30/17 15:38,1,5,absent,552.4363345,blocked,3096,552.4363345,3
no,335,11/30/17 15:38,1,5,absent,470.2756176,blocked,3096,470.2756176,3
yes,336,11/30/17 15:38,1,9,absent,1159.845633,blocked,3096,1159.845633,4p
yes,337,11/30/17 15:38,0,9,absent,443.0379054,blocked,3096,443.0379054,4p
yes,338,11/30/17 15:38,1,9,absent,455.4486717,blocked,3096,455.4486717,4p
yes,339,11/30/17 15:38,1,9,absent,538.3847834,blocked,3096,538.3847834,4p
yes,340,11/30/17 15:38,1,9,absent,390.865739,blocked,3096,390.865739,4p
yes,341,11/30/17 15:38,0,9,absent,392.0562062,blocked,3096,392.0562062,4p
yes,342,11/30/17 15:38,1,9,absent,545.7524034,blocked,3096,545.7524034,4p
yes,343,11/30/17 15:38,1,9,absent,374.9721973,blocked,3096,374.9721973,4p
yes,344,11/30/17 15:38,1,9,absent,453.4687799,blocked,3096,453.4687799,4p
yes,345,11/30/17 15:38,1,9,absent,653.4015745,blocked,3096,653.4015745,4p
yes,346,11/30/17 15:38,1,9,absent,422.5953349,blocked,3096,422.5953349,4p
yes,347,11/30/17 15:38,1,9,absent,581.4937951,blocked,3096,581.4937951,4p
no,348,11/30/17 15:38,1,9,absent,1057.566396,blocked,3096,1057.566396,4
no,349,11/30/17 15:38,1,9,absent,541.2396463,blocked,3096,541.2396463,4
no,350,11/30/17 15:38,1,9,absent,522.0963584,blocked,3096,522.0963584,4
no,351,11/30/17 15:38,1,9,absent,385.4992263,blocked,3096,385.4992263,4
no,352,11/30/17 15:38,1,9,absent,521.6217456,blocked,3096,521.6217456,4
no,353,11/30/17 15:38,1,9,absent,935.0868572,blocked,3096,935.0868572,4
no,354,11/30/17 15:38,1,9,absent,454.5730161,blocked,3096,454.5730161,4
no,355,11/30/17 15:38,1,9,absent,409.6541794,blocked,3096,409.6541794,4
no,356,11/30/17 15:38,1,9,absent,503.3715647,blocked,3096,503.3715647,4
no,357,11/30/17 15:38,1,9,absent,462.915868,blocked,3096,462.915868,4
no,358,11/30/17 15:38,1,9,absent,555.0656964,blocked,3096,555.0656964,4
no,359,11/30/17 15:38,1,9,absent,412.9675723,blocked,3096,412.9675723,4
no,360,11/30/17 15:38,1,9,absent,458.9187861,blocked,3096,458.9187861,4
no,361,11/30/17 15:38,1,9,absent,508.403761,blocked,3096,508.403761,4
no,362,11/30/17 15:38,1,9,absent,465.9113696,blocked,3096,465.9113696,4
no,363,11/30/17 15:38,1,9,absent,442.5509738,blocked,3096,442.5509738,4
no,364,11/30/17 15:38,1,9,absent,464.7219289,blocked,3096,464.7219289,4
no,365,11/30/17 15:38,1,9,absent,391.1860256,blocked,3096,391.1860256,4
no,366,11/30/17 15:38,1,9,absent,360.0384891,blocked,3096,360.0384891,4
no,367,11/30/17 15:38,1,9,absent,389.6448171,blocked,3096,389.6448171,4
no,368,11/30/17 15:38,1,9,absent,468.5944548,blocked,3096,468.5944548,4
no,369,11/30/17 15:38,1,9,absent,457.8080484,blocked,3096,457.8080484,4
no,370,11/30/17 15:38,1,9,absent,473.8976629,blocked,3096,473.8976629,4
no,371,11/30/17 15:38,1,9,absent,645.3177579,blocked,3096,645.3177579,4
no,372,11/30/17 15:38,1,9,absent,491.3265959,blocked,3096,491.3265959,4
no,373,11/30/17 15:38,1,9,absent,471.0705171,blocked,3096,471.0705171,4
no,374,11/30/17 15:38,1,9,absent,428.9155217,blocked,3096,428.9155217,4
no,375,11/30/17 15:38,1,9,absent,427.7801465,blocked,3096,427.7801465,4
no,376,11/30/17 15:38,1,9,absent,388.6689009,blocked,3096,388.6689009,4
no,377,11/30/17 15:38,1,9,absent,465.9370336,blocked,3096,465.9370336,4
no,378,11/30/17 15:38,1,9,absent,424.5002878,blocked,3096,424.5002878,4
no,379,11/30/17 15:38,1,9,absent,522.2171503,blocked,3096,522.2171503,4
no,380,11/30/17 15:38,1,9,absent,412.173015,blocked,3096,412.173015,4
no,381,11/30/17 15:38,0,9,absent,427.1245169,blocked,3096,427.1245169,4
no,382,11/30/17 15:38,1,9,absent,576.7675136,blocked,3096,576.7675136,4
no,383,11/30/17 15:38,1,9,absent,448.5789332,blocked,3096,448.5789332,4
no,384,11/30/17 15:38,1,9,absent,427.6945998,blocked,3096,427.6945998,4
no,385,11/30/17 15:38,1,9,absent,497.1554027,blocked,3096,497.1554027,4
no,386,11/30/17 15:38,1,9,absent,545.4232198,blocked,3096,545.4232198,4
no,387,11/30/17 15:38,1,9,absent,435.1145743,blocked,3096,435.1145743,4
no,388,11/30/17 15:38,1,9,absent,602.9399989,blocked,3096,602.9399989,4
no,389,11/30/17 15:38,1,9,absent,496.0077088,blocked,3096,496.0077088,4
no,390,11/30/17 15:38,1,9,absent,472.837911,blocked,3096,472.837911,4
no,391,11/30/17 15:38,1,9,absent,678.5995123,blocked,3096,678.5995123,4
no,392,11/30/17 15:38,1,9,absent,506.6538187,blocked,3096,506.6538187,4
no,393,11/30/17 15:38,1,9,absent,552.24471,blocked,3096,552.24471,4
no,394,11/30/17 15:38,0,9,absent,449.130538,blocked,3096,449.130538,4
no,395,11/30/17 15:38,1,9,absent,423.9996688,blocked,3096,423.9996688,4
no,396,11/30/17 15:38,1,9,absent,482.3154536,blocked,3096,482.3154536,4
no,397,11/30/17 15:38,1,9,absent,540.7448444,blocked,3096,540.7448444,4
no,398,11/30/17 15:38,1,9,absent,379.7214053,blocked,3096,379.7214053,4
no,399,11/30/17 15:38,1,9,absent,658.1956089,blocked,3096,658.1956089,4
no,400,11/30/17 15:38,1,9,absent,530.4108087,blocked,3096,530.4108087,4
no,401,11/30/17 15:38,1,9,absent,490.9727749,blocked,3096,490.9727749,4
no,402,11/30/17 15:38,1,9,absent,570.1958197,blocked,3096,570.1958197,4
no,403,11/30/17 15:38,1,9,absent,448.838995,blocked,3096,448.838995,4
no,404,11/30/17 15:38,1,9,absent,427.0023563,blocked,3096,427.0023563,4
no,405,11/30/17 15:38,1,9,absent,540.3444861,blocked,3096,540.3444861,4
no,406,11/30/17 15:38,1,9,absent,529.8020587,blocked,3096,529.8020587,4
no,407,11/30/17 15:38,1,9,absent,523.3542364,blocked,3096,523.3542364,4
no,408,11/30/17 15:38,1,9,absent,492.8804653,blocked,3096,492.8804653,4
no,409,11/30/17 15:38,1,9,absent,517.9812222,blocked,3096,517.9812222,4
no,410,11/30/17 15:38,1,9,absent,519.0769037,blocked,3096,519.0769037,4
no,411,11/30/17 15:38,1,9,absent,446.5566103,blocked,3096,446.5566103,4
no,412,11/30/17 15:38,1,9,absent,394.6414261,blocked,3096,394.6414261,4
no,413,11/30/17 15:38,1,9,absent,437.7134817,blocked,3096,437.7134817,4
no,414,11/30/17 15:38,1,9,absent,547.2309917,blocked,3096,547.2309917,4
no,415,11/30/17 15:38,1,9,absent,501.9117966,blocked,3096,501.9117966,4
no,416,11/30/17 15:38,1,9,absent,433.8389026,blocked,3096,433.8389026,4
no,417,11/30/17 15:38,1,9,absent,502.7744491,blocked,3096,502.7744491,4
no,418,11/30/17 15:38,1,9,absent,557.0055523,blocked,3096,557.0055523,4
no,419,11/30/17 15:38,1,9,absent,353.7771585,blocked,3096,353.7771585,4
no,420,11/30/17 15:38,0,9,absent,386.6797701,blocked,3096,386.6797701,4
no,421,11/30/17 15:38,1,9,absent,471.2398995,blocked,3096,471.2398995,4
no,422,11/30/17 15:38,1,9,absent,527.38759,blocked,3096,527.38759,4
no,423,11/30/17 15:38,1,9,absent,451.1655218,blocked,3096,451.1655218,4
no,424,11/30/17 15:38,1,9,absent,585.9264805,blocked,3096,585.9264805,4
no,425,11/30/17 15:38,1,9,absent,450.8804804,blocked,3096,450.8804804,4
no,426,11/30/17 15:38,0,9,absent,384.7296486,blocked,3096,384.7296486,4
no,427,11/30/17 15:38,1,9,absent,484.8452393,blocked,3096,484.8452393,4
no,428,11/30/17 15:38,1,9,absent,458.4575186,blocked,3096,458.4575186,4
no,429,11/30/17 15:38,0,9,absent,336.4005801,blocked,3096,336.4005801,4
no,430,11/30/17 15:38,1,9,absent,541.0487062,blocked,3096,541.0487062,4
no,431,11/30/17 15:38,1,9,absent,523.2084649,blocked,3096,523.2084649,4
no,432,11/30/17 15:38,1,9,absent,435.0971228,blocked,3096,435.0971228,4
no,433,11/30/17 15:38,1,9,absent,529.1922822,blocked,3096,529.1922822,4
no,434,11/30/17 15:38,1,9,absent,551.2208876,blocked,3096,551.2208876,4
no,435,11/30/17 15:38,1,9,absent,439.4904568,blocked,3096,439.4904568,4
no,436,11/30/17 15:38,1,9,absent,702.5248581,blocked,3096,702.5248581,4
no,437,11/30/17 15:38,0,9,absent,421.5824625,blocked,3096,421.5824625,4
no,438,11/30/17 15:38,1,9,absent,569.0255415,blocked,3096,569.0255415,4
no,439,11/30/17 15:38,1,9,absent,568.1950546,blocked,3096,568.1950546,4
no,440,11/30/17 15:38,1,9,absent,509.7567669,blocked,3096,509.7567669,4
no,441,11/30/17 15:38,1,9,absent,488.4166409,blocked,3096,488.4166409,4
no,442,11/30/17 15:38,1,9,absent,438.2784318,blocked,3096,438.2784318,4
no,443,11/30/17 15:38,1,9,absent,482.3592535,blocked,3096,482.3592535,4
no,444,11/30/17 15:38,1,9,absent,387.4770649,blocked,3096,387.4770649,4
no,445,11/30/17 15:38,1,9,absent,364.2487532,blocked,3096,364.2487532,4
no,446,11/30/17 15:38,0,9,absent,312.1155961,blocked,3096,312.1155961,4
no,447,11/30/17 15:38,1,9,absent,452.0192774,blocked,3096,452.0192774,4
yes,0,10/12/17 14:15,0,5,present,2000.039009,blocked,3000,2000.039009,1p
yes,1,10/12/17 14:15,0,5,present,2000.064673,blocked,3000,2000.064673,1p
yes,2,10/12/17 14:15,0,5,present,2000.077676,blocked,3000,2000.077676,1p
yes,3,10/12/17 14:15,1,5,present,1399.126466,blocked,3000,1399.126466,1p
yes,4,10/12/17 14:15,1,5,present,879.0380587,blocked,3000,879.0380587,1p
yes,5,10/12/17 14:15,1,5,present,902.9076281,blocked,3000,902.9076281,1p
yes,6,10/12/17 14:15,1,5,present,710.8242523,blocked,3000,710.8242523,1p
yes,7,10/12/17 14:15,1,5,present,766.5876672,blocked,3000,766.5876672,1p
yes,8,10/12/17 14:15,1,5,present,831.5103912,blocked,3000,831.5103912,1p
yes,9,10/12/17 14:15,1,5,present,839.1873479,blocked,3000,839.1873479,1p
yes,10,10/12/17 14:15,1,5,present,655.269229,blocked,3000,655.269229,1p
yes,11,10/12/17 14:15,1,5,present,608.0697185,blocked,3000,608.0697185,1p
no,12,10/12/17 14:15,1,5,present,595.5323431,blocked,3000,595.5323431,1
no,13,10/12/17 14:15,1,5,present,461.3250424,blocked,3000,461.3250424,1
no,14,10/12/17 14:15,1,5,present,503.2025245,blocked,3000,503.2025245,1
no,15,10/12/17 14:15,0,5,present,607.064032,blocked,3000,607.064032,1
no,16,10/12/17 14:15,1,5,present,447.8227008,blocked,3000,447.8227008,1
no,17,10/12/17 14:15,1,5,present,530.8186952,blocked,3000,530.8186952,1
no,18,10/12/17 14:15,1,5,present,391.643187,blocked,3000,391.643187,1
no,19,10/12/17 14:15,1,5,present,495.2860372,blocked,3000,495.2860372,1
no,20,10/12/17 14:15,1,5,present,487.4304591,blocked,3000,487.4304591,1
no,21,10/12/17 14:15,1,5,present,447.1475666,blocked,3000,447.1475666,1
no,22,10/12/17 14:15,1,5,present,448.0437533,blocked,3000,448.0437533,1
no,23,10/12/17 14:15,1,5,present,482.0143294,blocked,3000,482.0143294,1
no,24,10/12/17 14:15,1,5,present,478.8323361,blocked,3000,478.8323361,1
no,25,10/12/17 14:15,1,5,present,527.550813,blocked,3000,527.550813,1
no,26,10/12/17 14:15,1,5,present,503.6774795,blocked,3000,503.6774795,1
no,27,10/12/17 14:15,1,5,present,447.4103659,blocked,3000,447.4103659,1
no,28,10/12/17 14:15,1,5,present,548.2818468,blocked,3000,548.2818468,1
no,29,10/12/17 14:15,1,5,present,406.9926519,blocked,3000,406.9926519,1
no,30,10/12/17 14:15,0,5,present,438.9607519,blocked,3000,438.9607519,1
no,31,10/12/17 14:15,1,5,present,583.925031,blocked,3000,583.925031,1
no,32,10/12/17 14:15,1,5,present,411.4564763,blocked,3000,411.4564763,1
no,33,10/12/17 14:15,1,5,present,631.4468813,blocked,3000,631.4468813,1
no,34,10/12/17 14:15,0,5,present,607.412378,blocked,3000,607.412378,1
no,35,10/12/17 14:15,1,5,present,535.3725146,blocked,3000,535.3725146,1
no,36,10/12/17 14:15,1,5,present,655.049203,blocked,3000,655.049203,1
no,37,10/12/17 14:15,1,5,present,502.9729173,blocked,3000,502.9729173,1
no,38,10/12/17 14:15,1,5,present,536.0035067,blocked,3000,536.0035067,1
no,39,10/12/17 14:15,1,5,present,503.8732103,blocked,3000,503.8732103,1
no,40,10/12/17 14:15,1,5,present,447.6560559,blocked,3000,447.6560559,1
no,41,10/12/17 14:15,1,5,present,503.5341033,blocked,3000,503.5341033,1
no,42,10/12/17 14:15,1,5,present,599.4722798,blocked,3000,599.4722798,1
no,43,10/12/17 14:15,1,5,present,479.2214023,blocked,3000,479.2214023,1
no,44,10/12/17 14:15,1,5,present,431.1712158,blocked,3000,431.1712158,1
no,45,10/12/17 14:15,1,5,present,446.8351502,blocked,3000,446.8351502,1
no,46,10/12/17 14:15,1,5,present,431.8046032,blocked,3000,431.8046032,1
no,47,10/12/17 14:15,1,5,present,575.7734615,blocked,3000,575.7734615,1
no,48,10/12/17 14:15,1,5,present,470.5500513,blocked,3000,470.5500513,1
no,49,10/12/17 14:15,1,5,present,479.4859125,blocked,3000,479.4859125,1
no,50,10/12/17 14:15,1,5,present,399.1795049,blocked,3000,399.1795049,1
no,51,10/12/17 14:15,1,5,present,541.2605197,blocked,3000,541.2605197,1
no,52,10/12/17 14:15,1,5,present,478.8805844,blocked,3000,478.8805844,1
no,53,10/12/17 14:15,1,5,present,527.0464299,blocked,3000,527.0464299,1
no,54,10/12/17 14:15,1,5,present,455.7932536,blocked,3000,455.7932536,1
no,55,10/12/17 14:15,1,5,present,494.7101371,blocked,3000,494.7101371,1
no,56,10/12/17 14:15,1,5,present,503.6394968,blocked,3000,503.6394968,1
no,57,10/12/17 14:15,1,5,present,535.3574584,blocked,3000,535.3574584,1
no,58,10/12/17 14:15,1,5,present,511.1966882,blocked,3000,511.1966882,1
no,59,10/12/17 14:15,1,5,present,437.9608826,blocked,3000,437.9608826,1
no,60,10/12/17 14:15,1,5,present,590.9056379,blocked,3000,590.9056379,1
no,61,10/12/17 14:15,1,5,present,494.8422212,blocked,3000,494.8422212,1
no,62,10/12/17 14:15,1,5,present,558.7828696,blocked,3000,558.7828696,1
no,63,10/12/17 14:15,1,5,present,439.505513,blocked,3000,439.505513,1
no,64,10/12/17 14:15,1,5,present,639.4170919,blocked,3000,639.4170919,1
no,65,10/12/17 14:15,1,5,present,455.2525987,blocked,3000,455.2525987,1
no,66,10/12/17 14:15,1,5,present,463.0123646,blocked,3000,463.0123646,1
no,67,10/12/17 14:15,1,5,present,495.091333,blocked,3000,495.091333,1
no,68,10/12/17 14:15,1,5,present,573.6389014,blocked,3000,573.6389014,1
no,69,10/12/17 14:15,1,5,present,478.6728771,blocked,3000,478.6728771,1
no,70,10/12/17 14:15,1,5,present,503.753445,blocked,3000,503.753445,1
no,71,10/12/17 14:15,1,5,present,599.4490111,blocked,3000,599.4490111,1
no,72,10/12/17 14:15,1,5,present,759.3117532,blocked,3000,759.3117532,1
no,73,10/12/17 14:15,1,5,present,583.2170469,blocked,3000,583.2170469,1
no,74,10/12/17 14:15,1,5,present,551.1616893,blocked,3000,551.1616893,1
no,75,10/12/17 14:15,1,5,present,477.852998,blocked,3000,477.852998,1
no,76,10/12/17 14:15,1,5,present,598.6729319,blocked,3000,598.6729319,1
no,77,10/12/17 14:15,1,5,present,494.748462,blocked,3000,494.748462,1
no,78,10/12/17 14:15,1,5,present,430.4348302,blocked,3000,430.4348302,1
no,79,10/12/17 14:15,1,5,present,487.4188248,blocked,3000,487.4188248,1
no,80,10/12/17 14:15,1,5,present,415.2656976,blocked,3000,415.2656976,1
no,81,10/12/17 14:15,1,5,present,630.8993828,blocked,3000,630.8993828,1
no,82,10/12/17 14:15,1,5,present,591.0459344,blocked,3000,591.0459344,1
no,83,10/12/17 14:15,1,5,present,366.6892282,blocked,3000,366.6892282,1
no,84,10/12/17 14:15,1,5,present,574.5665693,blocked,3000,574.5665693,1
no,85,10/12/17 14:15,1,5,present,573.4691769,blocked,3000,573.4691769,1
no,86,10/12/17 14:15,1,5,present,446.2602767,blocked,3000,446.2602767,1
no,87,10/12/17 14:15,1,5,present,567.2362477,blocked,3000,567.2362477,1
no,88,10/12/17 14:15,1,5,present,455.0192275,blocked,3000,455.0192275,1
no,89,10/12/17 14:15,1,5,present,583.0418474,blocked,3000,583.0418474,1
no,90,10/12/17 14:15,1,5,present,598.8163081,blocked,3000,598.8163081,1
no,91,10/12/17 14:15,1,5,present,750.7341614,blocked,3000,750.7341614,1
no,92,10/12/17 14:15,1,5,present,501.5747428,blocked,3000,501.5747428,1
no,93,10/12/17 14:15,1,5,present,527.5569724,blocked,3000,527.5569724,1
no,94,10/12/17 14:15,1,5,present,407.2414216,blocked,3000,407.2414216,1
no,95,10/12/17 14:15,1,5,present,503.2196338,blocked,3000,503.2196338,1
no,96,10/12/17 14:15,1,5,present,542.8643483,blocked,3000,542.8643483,1
no,97,10/12/17 14:15,1,5,present,590.8200913,blocked,3000,590.8200913,1
no,98,10/12/17 14:15,1,5,present,502.7272273,blocked,3000,502.7272273,1
no,99,10/12/17 14:15,1,5,present,622.5565309,blocked,3000,622.5565309,1
no,100,10/12/17 14:15,1,5,present,789.4063815,blocked,3000,789.4063815,1
no,101,10/12/17 14:15,1,5,present,525.0987037,blocked,3000,525.0987037,1
no,102,10/12/17 14:15,1,5,present,647.1210814,blocked,3000,647.1210814,1
no,103,10/12/17 14:15,1,5,present,555.0831479,blocked,3000,555.0831479,1
no,104,10/12/17 14:15,1,5,present,598.9199906,blocked,3000,598.9199906,1
no,105,10/12/17 14:15,1,5,present,533.6920362,blocked,3000,533.6920362,1
no,106,10/12/17 14:15,1,5,present,446.6746647,blocked,3000,446.6746647,1
no,107,10/12/17 14:15,1,5,present,558.2340023,blocked,3000,558.2340023,1
no,108,10/12/17 14:15,1,5,present,542.4123198,blocked,3000,542.4123198,1
no,109,10/12/17 14:15,1,5,present,517.1408118,blocked,3000,517.1408118,1
no,110,10/12/17 14:15,1,5,present,567.1900525,blocked,3000,567.1900525,1
no,111,10/12/17 14:15,1,5,present,543.0101198,blocked,3000,543.0101198,1
yes,112,10/12/17 14:15,1,9,present,951.6699049,blocked,3000,951.6699049,2p
yes,113,10/12/17 14:15,1,9,present,638.3203839,blocked,3000,638.3203839,2p
yes,114,10/12/17 14:15,1,9,present,633.3384889,blocked,3000,633.3384889,2p
yes,115,10/12/17 14:15,1,9,present,665.1628706,blocked,3000,665.1628706,2p
yes,116,10/12/17 14:15,1,9,present,1049.05861,blocked,3000,1049.05861,2p
yes,117,10/12/17 14:15,1,9,present,640.8104758,blocked,3000,640.8104758,2p
yes,118,10/12/17 14:15,1,9,present,615.8315374,blocked,3000,615.8315374,2p
yes,119,10/12/17 14:15,1,9,present,393.5785944,blocked,3000,393.5785944,2p
yes,120,10/12/17 14:15,1,9,present,609.543174,blocked,3000,609.543174,2p
yes,121,10/12/17 14:15,1,9,present,441.2133664,blocked,3000,441.2133664,2p
yes,122,10/12/17 14:15,1,9,present,737.217448,blocked,3000,737.217448,2p
yes,123,10/12/17 14:15,1,9,present,647.8975028,blocked,3000,647.8975028,2p
no,124,10/12/17 14:15,1,9,present,924.209087,blocked,3000,924.209087,2
no,125,10/12/17 14:15,1,9,present,607.1095428,blocked,3000,607.1095428,2
no,126,10/12/17 14:15,1,9,present,576.8934383,blocked,3000,576.8934383,2
no,127,10/12/17 14:15,1,9,present,504.9404903,blocked,3000,504.9404903,2
no,128,10/12/17 14:15,1,9,present,680.6776116,blocked,3000,680.6776116,2
no,129,10/12/17 14:15,1,9,present,921.4472988,blocked,3000,921.4472988,2
no,130,10/12/17 14:15,1,9,present,577.3235669,blocked,3000,577.3235669,2
no,131,10/12/17 14:15,1,9,present,432.2189912,blocked,3000,432.2189912,2
no,132,10/12/17 14:15,1,9,present,561.1333494,blocked,3000,561.1333494,2
no,133,10/12/17 14:15,1,9,present,559.9784696,blocked,3000,559.9784696,2
no,134,10/12/17 14:15,1,9,present,485.7236323,blocked,3000,485.7236323,2
no,135,10/12/17 14:15,1,9,present,424.5793329,blocked,3000,424.5793329,2
no,136,10/12/17 14:15,1,9,present,577.402612,blocked,3000,577.402612,2
no,137,10/12/17 14:15,1,9,present,457.3926338,blocked,3000,457.3926338,2
no,138,10/12/17 14:15,1,9,present,553.1152327,blocked,3000,553.1152327,2
no,139,10/12/17 14:15,1,9,present,440.9803373,blocked,3000,440.9803373,2
no,140,10/12/17 14:15,1,9,present,553.0426891,blocked,3000,553.0426891,2
no,141,10/12/17 14:15,1,9,present,506.8892431,blocked,3000,506.8892431,2
no,142,10/12/17 14:15,1,9,present,520.6400122,blocked,3000,520.6400122,2
no,143,10/12/17 14:15,1,9,present,432.4667343,blocked,3000,432.4667343,2
no,144,10/12/17 14:15,1,9,present,673.1919373,blocked,3000,673.1919373,2
no,145,10/12/17 14:15,1,9,present,625.1869194,blocked,3000,625.1869194,2
no,146,10/12/17 14:15,1,9,present,585.0563,blocked,3000,585.0563,2
no,147,10/12/17 14:15,1,9,present,856.0434604,blocked,3000,856.0434604,2
no,148,10/12/17 14:15,1,9,present,472.9111389,blocked,3000,472.9111389,2
no,149,10/12/17 14:15,1,9,present,544.7501388,blocked,3000,544.7501388,2
no,150,10/12/17 14:15,1,9,present,504.4669041,blocked,3000,504.4669041,2
no,151,10/12/17 14:15,1,9,present,576.3948724,blocked,3000,576.3948724,2
no,152,10/12/17 14:15,1,9,present,464.3903501,blocked,3000,464.3903501,2
no,153,10/12/17 14:15,1,9,present,585.2202074,blocked,3000,585.2202074,2
no,154,10/12/17 14:15,1,9,present,608.1894838,blocked,3000,608.1894838,2
no,155,10/12/17 14:15,1,9,present,648.8611003,blocked,3000,648.8611003,2
no,156,10/12/17 14:15,1,9,present,552.8377194,blocked,3000,552.8377194,2
no,157,10/12/17 14:15,1,9,present,488.6041592,blocked,3000,488.6041592,2
no,158,10/12/17 14:15,1,9,present,567.5281329,blocked,3000,567.5281329,2
no,159,10/12/17 14:15,1,9,present,456.4837862,blocked,3000,456.4837862,2
no,160,10/12/17 14:15,1,9,present,625.1479102,blocked,3000,625.1479102,2
no,161,10/12/17 14:15,1,9,present,497.1465058,blocked,3000,497.1465058,2
no,162,10/12/17 14:15,1,9,present,704.8452256,blocked,3000,704.8452256,2
no,163,10/12/17 14:15,1,9,present,536.8319405,blocked,3000,536.8319405,2
no,164,10/12/17 14:15,1,9,present,704.4650562,blocked,3000,704.4650562,2
no,165,10/12/17 14:15,1,9,present,584.6579947,blocked,3000,584.6579947,2
no,166,10/12/17 14:15,1,9,present,775.2001621,blocked,3000,775.2001621,2
no,167,10/12/17 14:15,1,9,present,504.2362703,blocked,3000,504.2362703,2
no,168,10/12/17 14:15,1,9,present,455.9780344,blocked,3000,455.9780344,2
no,169,10/12/17 14:15,1,9,present,637.8228445,blocked,3000,637.8228445,2
no,170,10/12/17 14:15,1,9,present,544.7278966,blocked,3000,544.7278966,2
no,171,10/12/17 14:15,1,9,present,568.5026803,blocked,3000,568.5026803,2
no,172,10/12/17 14:15,1,9,present,583.6523083,blocked,3000,583.6523083,2
no,173,10/12/17 14:15,1,9,present,504.2328484,blocked,3000,504.2328484,2
no,174,10/12/17 14:15,1,9,present,608.2736617,blocked,3000,608.2736617,2
no,175,10/12/17 14:15,1,9,present,560.1502473,blocked,3000,560.1502473,2
no,176,10/12/17 14:15,1,9,present,689.0334665,blocked,3000,689.0334665,2
no,177,10/12/17 14:15,1,9,present,616.75681,blocked,3000,616.75681,2
no,178,10/12/17 14:15,1,9,present,504.7276503,blocked,3000,504.7276503,2
no,179,10/12/17 14:15,1,9,present,632.5387988,blocked,3000,632.5387988,2
no,180,10/12/17 14:15,1,9,present,608.5060064,blocked,3000,608.5060064,2
no,181,10/12/17 14:15,1,9,present,464.2722957,blocked,3000,464.2722957,2
no,182,10/12/17 14:15,1,9,present,607.9153923,blocked,3000,607.9153923,2
no,183,10/12/17 14:15,1,9,present,551.9955981,blocked,3000,551.9955981,2
no,184,10/12/17 14:15,1,9,present,504.9103779,blocked,3000,504.9103779,2
no,185,10/12/17 14:15,1,9,present,504.692405,blocked,3000,504.692405,2
no,186,10/12/17 14:15,1,9,present,584.3616611,blocked,3000,584.3616611,2
no,187,10/12/17 14:15,1,9,present,503.0328,blocked,3000,503.0328,2
no,188,10/12/17 14:15,1,9,present,719.1657353,blocked,3000,719.1657353,2
no,189,10/12/17 14:15,1,9,present,640.1976196,blocked,3000,640.1976196,2
no,190,10/12/17 14:15,1,9,present,767.9054278,blocked,3000,767.9054278,2
no,191,10/12/17 14:15,1,9,present,503.9437007,blocked,3000,503.9437007,2
no,192,10/12/17 14:15,1,9,present,616.6171979,blocked,3000,616.6171979,2
no,193,10/12/17 14:15,1,9,present,600.5908878,blocked,3000,600.5908878,2
no,194,10/12/17 14:15,1,9,present,623.4783817,blocked,3000,623.4783817,2
no,195,10/12/17 14:15,1,9,present,640.213018,blocked,3000,640.213018,2
no,196,10/12/17 14:15,1,9,present,479.1481743,blocked,3000,479.1481743,2
no,197,10/12/17 14:15,1,9,present,567.0449654,blocked,3000,567.0449654,2
no,198,10/12/17 14:15,1,9,present,494.8374306,blocked,3000,494.8374306,2
no,199,10/12/17 14:15,1,9,present,654.5721949,blocked,3000,654.5721949,2
no,200,10/12/17 14:15,1,9,present,584.6042714,blocked,3000,584.6042714,2
no,201,10/12/17 14:15,1,9,present,544.4893926,blocked,3000,544.4893926,2
no,202,10/12/17 14:15,1,9,present,496.2619534,blocked,3000,496.2619534,2
no,203,10/12/17 14:15,1,9,present,711.0798657,blocked,3000,711.0798657,2
no,204,10/12/17 14:15,1,9,present,855.0675442,blocked,3000,855.0675442,2
no,205,10/12/17 14:15,1,9,present,590.887502,blocked,3000,590.887502,2
no,206,10/12/17 14:15,1,9,present,646.5968515,blocked,3000,646.5968515,2
no,207,10/12/17 14:15,1,9,present,479.3791503,blocked,3000,479.3791503,2
no,208,10/12/17 14:15,1,9,present,568.5273178,blocked,3000,568.5273178,2
no,209,10/12/17 14:15,1,9,present,560.1998644,blocked,3000,560.1998644,2
no,210,10/12/17 14:15,1,9,present,632.1223577,blocked,3000,632.1223577,2
no,211,10/12/17 14:15,1,9,present,750.9890904,blocked,3000,750.9890904,2
no,212,10/12/17 14:15,1,9,present,686.9300454,blocked,3000,686.9300454,2
no,213,10/12/17 14:15,1,9,present,766.6745826,blocked,3000,766.6745826,2
no,214,10/12/17 14:15,1,9,present,704.5547091,blocked,3000,704.5547091,2
no,215,10/12/17 14:15,1,9,present,759.5208292,blocked,3000,759.5208292,2
no,216,10/12/17 14:15,1,9,present,641.2980918,blocked,3000,641.2980918,2
no,217,10/12/17 14:15,1,9,present,575.0062791,blocked,3000,575.0062791,2
no,218,10/12/17 14:15,1,9,present,543.78791,blocked,3000,543.78791,2
no,219,10/12/17 14:15,1,9,present,518.9482415,blocked,3000,518.9482415,2
no,220,10/12/17 14:15,1,9,present,455.3966593,blocked,3000,455.3966593,2
no,221,10/12/17 14:15,1,9,present,432.7048962,blocked,3000,432.7048962,2
no,222,10/12/17 14:15,1,9,present,736.4471859,blocked,3000,736.4471859,2
no,223,10/12/17 14:15,1,9,present,528.1766723,blocked,3000,528.1766723,2
yes,224,10/12/17 14:15,0,5,absent,2000.036614,blocked,3000,2000.036614,3p
yes,225,10/12/17 14:15,1,5,absent,1453.228907,blocked,3000,1453.228907,3p
yes,226,10/12/17 14:15,1,5,absent,511.951894,blocked,3000,511.951894,3p
yes,227,10/12/17 14:15,1,5,absent,655.9525757,blocked,3000,655.9525757,3p
yes,228,10/12/17 14:15,1,5,absent,583.6119303,blocked,3000,583.6119303,3p
yes,229,10/12/17 14:15,1,5,absent,735.6252536,blocked,3000,735.6252536,3p
yes,230,10/12/17 14:15,1,5,absent,663.3889752,blocked,3000,663.3889752,3p
yes,231,10/12/17 14:15,1,5,absent,1719.315271,blocked,3000,1719.315271,3p
yes,232,10/12/17 14:15,0,5,absent,2000.035587,blocked,3000,2000.035587,3p
yes,233,10/12/17 14:15,1,5,absent,800.0206681,blocked,3000,800.0206681,3p
yes,234,10/12/17 14:15,0,5,absent,743.6166798,blocked,3000,743.6166798,3p
yes,235,10/12/17 14:15,1,5,absent,991.6390123,blocked,3000,991.6390123,3p
no,236,10/12/17 14:15,1,5,absent,779.0870598,blocked,3000,779.0870598,3
no,237,10/12/17 14:15,1,5,absent,493.9860703,blocked,3000,493.9860703,3
no,238,10/12/17 14:15,1,5,absent,447.8480226,blocked,3000,447.8480226,3
no,239,10/12/17 14:15,1,5,absent,455.5013684,blocked,3000,455.5013684,3
no,240,10/12/17 14:15,1,5,absent,431.5900522,blocked,3000,431.5900522,3
no,241,10/12/17 14:15,0,5,absent,519.3126703,blocked,3000,519.3126703,3
no,242,10/12/17 14:15,1,5,absent,584.2134943,blocked,3000,584.2134943,3
no,243,10/12/17 14:15,1,5,absent,600.2398044,blocked,3000,600.2398044,3
no,244,10/12/17 14:15,1,5,absent,576.0944326,blocked,3000,576.0944326,3
no,245,10/12/17 14:15,1,5,absent,719.8446336,blocked,3000,719.8446336,3
no,246,10/12/17 14:15,1,5,absent,543.6346104,blocked,3000,543.6346104,3
no,247,10/12/17 14:15,1,5,absent,783.5987903,blocked,3000,783.5987903,3
no,248,10/12/17 14:15,1,5,absent,479.4718829,blocked,3000,479.4718829,3
no,249,10/12/17 14:15,1,5,absent,528.2947267,blocked,3000,528.2947267,3
no,250,10/12/17 14:15,0,5,absent,568.2412498,blocked,3000,568.2412498,3
no,251,10/12/17 14:15,1,5,absent,448.2377732,blocked,3000,448.2377732,3
no,252,10/12/17 14:15,1,5,absent,535.8707383,blocked,3000,535.8707383,3
no,253,10/12/17 14:15,1,5,absent,455.7385037,blocked,3000,455.7385037,3
no,254,10/12/17 14:15,1,5,absent,607.6005806,blocked,3000,607.6005806,3
no,255,10/12/17 14:15,1,5,absent,743.5242894,blocked,3000,743.5242894,3
no,256,10/12/17 14:15,1,5,absent,527.3082027,blocked,3000,527.3082027,3
no,257,10/12/17 14:15,1,5,absent,735.191361,blocked,3000,735.191361,3
no,258,10/12/17 14:15,1,5,absent,590.9343816,blocked,3000,590.9343816,3
no,259,10/12/17 14:15,1,5,absent,566.9310172,blocked,3000,566.9310172,3
no,260,10/12/17 14:15,1,5,absent,535.7920354,blocked,3000,535.7920354,3
no,261,10/12/17 14:15,1,5,absent,543.4713874,blocked,3000,543.4713874,3
no,262,10/12/17 14:15,1,5,absent,714.5362927,blocked,3000,714.5362927,3
no,263,10/12/17 14:15,1,5,absent,543.2907129,blocked,3000,543.2907129,3
no,264,10/12/17 14:15,1,5,absent,527.2178654,blocked,3000,527.2178654,3
no,265,10/12/17 14:15,1,5,absent,759.1235506,blocked,3000,759.1235506,3
no,266,10/12/17 14:15,1,5,absent,446.0344336,blocked,3000,446.0344336,3
no,267,10/12/17 14:15,1,5,absent,455.8521097,blocked,3000,455.8521097,3
no,268,10/12/17 14:15,1,5,absent,615.5964552,blocked,3000,615.5964552,3
no,269,10/12/17 14:15,1,5,absent,575.5257184,blocked,3000,575.5257184,3
no,270,10/12/17 14:15,1,5,absent,583.3655559,blocked,3000,583.3655559,3
no,271,10/12/17 14:15,1,5,absent,743.3535383,blocked,3000,743.3535383,3
no,272,10/12/17 14:15,1,5,absent,415.1308761,blocked,3000,415.1308761,3
no,273,10/12/17 14:15,1,5,absent,526.9872316,blocked,3000,526.9872316,3
no,274,10/12/17 14:15,1,5,absent,695.8563254,blocked,3000,695.8563254,3
no,275,10/12/17 14:15,1,5,absent,582.7869183,blocked,3000,582.7869183,3
no,276,10/12/17 14:15,1,5,absent,479.5806982,blocked,3000,479.5806982,3
no,277,10/12/17 14:15,1,5,absent,999.3789313,blocked,3000,999.3789313,3
no,278,10/12/17 14:15,1,5,absent,623.3196071,blocked,3000,623.3196071,3
no,279,10/12/17 14:15,1,5,absent,580.1010956,blocked,3000,580.1010956,3
no,280,10/12/17 14:15,1,5,absent,518.9174447,blocked,3000,518.9174447,3
no,281,10/12/17 14:15,1,5,absent,534.7456287,blocked,3000,534.7456287,3
no,282,10/12/17 14:15,1,5,absent,487.7986519,blocked,3000,487.7986519,3
no,283,10/12/17 14:15,1,5,absent,679.3649838,blocked,3000,679.3649838,3
no,284,10/12/17 14:15,1,5,absent,471.462663,blocked,3000,471.462663,3
no,285,10/12/17 14:15,1,5,absent,583.0630629,blocked,3000,583.0630629,3
no,286,10/12/17 14:15,1,5,absent,414.9474641,blocked,3000,414.9474641,3
no,287,10/12/17 14:15,1,5,absent,583.0380833,blocked,3000,583.0380833,3
no,288,10/12/17 14:15,1,5,absent,598.975767,blocked,3000,598.975767,3
no,289,10/12/17 14:15,1,5,absent,463.5259867,blocked,3000,463.5259867,3
no,290,10/12/17 14:15,1,5,absent,471.3647976,blocked,3000,471.3647976,3
no,291,10/12/17 14:15,1,5,absent,455.1294116,blocked,3000,455.1294116,3
no,292,10/12/17 14:15,1,5,absent,527.2192342,blocked,3000,527.2192342,3
no,293,10/12/17 14:15,1,5,absent,574.0437082,blocked,3000,574.0437082,3
no,294,10/12/17 14:15,1,5,absent,534.9547048,blocked,3000,534.9547048,3
no,295,10/12/17 14:15,1,5,absent,518.8791198,blocked,3000,518.8791198,3
no,296,10/12/17 14:15,1,5,absent,502.8514411,blocked,3000,502.8514411,3
no,297,10/12/17 14:15,1,5,absent,470.6407307,blocked,3000,470.6407307,3
no,298,10/12/17 14:15,1,5,absent,735.462715,blocked,3000,735.462715,3
no,299,10/12/17 14:15,1,5,absent,599.3833113,blocked,3000,599.3833113,3
no,300,10/12/17 14:15,1,5,absent,607.089696,blocked,3000,607.089696,3
no,301,10/12/17 14:15,1,5,absent,526.9543817,blocked,3000,526.9543817,3
no,302,10/12/17 14:15,1,5,absent,518.9348963,blocked,3000,518.9348963,3
no,303,10/12/17 14:15,1,5,absent,470.7772632,blocked,3000,470.7772632,3
no,304,10/12/17 14:15,1,5,absent,606.6831783,blocked,3000,606.6831783,3
no,305,10/12/17 14:15,1,5,absent,534.441767,blocked,3000,534.441767,3
no,306,10/12/17 14:15,1,5,absent,591.2218184,blocked,3000,591.2218184,3
no,307,10/12/17 14:15,1,5,absent,511.2596505,blocked,3000,511.2596505,3
no,308,10/12/17 14:15,1,5,absent,462.9719866,blocked,3000,462.9719866,3
no,309,10/12/17 14:15,1,5,absent,527.0327425,blocked,3000,527.0327425,3
no,310,10/12/17 14:15,1,5,absent,790.8226919,blocked,3000,790.8226919,3
no,311,10/12/17 14:15,1,5,absent,446.5740618,blocked,3000,446.5740618,3
no,312,10/12/17 14:15,1,5,absent,606.429618,blocked,3000,606.429618,3
no,313,10/12/17 14:15,1,5,absent,727.2502363,blocked,3000,727.2502363,3
no,314,10/12/17 14:15,1,5,absent,465.2601884,blocked,3000,465.2601884,3
no,315,10/12/17 14:15,1,5,absent,535.1839698,blocked,3000,535.1839698,3
no,316,10/12/17 14:15,1,5,absent,486.9989618,blocked,3000,486.9989618,3
no,317,10/12/17 14:15,1,5,absent,558.6193044,blocked,3000,558.6193044,3
no,318,10/12/17 14:15,1,5,absent,478.461748,blocked,3000,478.461748,3
no,319,10/12/17 14:15,1,5,absent,446.5548994,blocked,3000,446.5548994,3
no,320,10/12/17 14:15,1,5,absent,470.5158326,blocked,3000,470.5158326,3
no,321,10/12/17 14:15,1,5,absent,807.2301978,blocked,3000,807.2301978,3
no,322,10/12/17 14:15,1,5,absent,462.6985794,blocked,3000,462.6985794,3
no,323,10/12/17 14:15,1,5,absent,415.0436185,blocked,3000,415.0436185,3
no,324,10/12/17 14:15,1,5,absent,558.5388905,blocked,3000,558.5388905,3
no,325,10/12/17 14:15,1,5,absent,430.6329563,blocked,3000,430.6329563,3
no,326,10/12/17 14:15,1,5,absent,510.618735,blocked,3000,510.618735,3
no,327,10/12/17 14:15,1,5,absent,406.3075943,blocked,3000,406.3075943,3
no,328,10/12/17 14:15,1,5,absent,383.3119695,blocked,3000,383.3119695,3
no,329,10/12/17 14:15,1,5,absent,574.2544951,blocked,3000,574.2544951,3
no,330,10/12/17 14:15,1,5,absent,574.9135466,blocked,3000,574.9135466,3
no,331,10/12/17 14:15,0,5,absent,469.7859486,blocked,3000,469.7859486,3
no,332,10/12/17 14:15,1,5,absent,459.9094164,blocked,3000,459.9094164,3
no,333,10/12/17 14:15,1,5,absent,582.7342216,blocked,3000,582.7342216,3
no,334,10/12/17 14:15,1,5,absent,462.6332218,blocked,3000,462.6332218,3
no,335,10/12/17 14:15,1,5,absent,774.2434083,blocked,3000,774.2434083,3
yes,336,10/12/17 14:15,1,9,absent,1591.059964,blocked,3000,1591.059964,4p
yes,337,10/12/17 14:15,1,9,absent,694.6891269,blocked,3000,694.6891269,4p
yes,338,10/12/17 14:15,1,9,absent,825.7643936,blocked,3000,825.7643936,4p
yes,339,10/12/17 14:15,1,9,absent,569.519659,blocked,3000,569.519659,4p
yes,340,10/12/17 14:15,1,9,absent,665.3859762,blocked,3000,665.3859762,4p
yes,341,10/12/17 14:15,1,9,absent,631.1471259,blocked,3000,631.1471259,4p
yes,342,10/12/17 14:15,1,9,absent,568.0958205,blocked,3000,568.0958205,4p
yes,343,10/12/17 14:15,1,9,absent,471.9975007,blocked,3000,471.9975007,4p
yes,344,10/12/17 14:15,1,9,absent,552.7935773,blocked,3000,552.7935773,4p
yes,345,10/12/17 14:15,1,9,absent,568.6457144,blocked,3000,568.6457144,4p
yes,346,10/12/17 14:15,1,9,absent,600.4358773,blocked,3000,600.4358773,4p
yes,347,10/12/17 14:15,1,9,absent,608.3920583,blocked,3000,608.3920583,4p
no,348,10/12/17 14:15,1,9,absent,819.9848617,blocked,3000,819.9848617,4
no,349,10/12/17 14:15,1,9,absent,485.7338979,blocked,3000,485.7338979,4
no,350,10/12/17 14:15,1,9,absent,521.4537319,blocked,3000,521.4537319,4
no,351,10/12/17 14:15,1,9,absent,736.419811,blocked,3000,736.419811,4
no,352,10/12/17 14:15,1,9,absent,577.2893482,blocked,3000,577.2893482,4
no,353,10/12/17 14:15,1,9,absent,488.3245927,blocked,3000,488.3245927,4
no,354,10/12/17 14:15,1,9,absent,527.1562718,blocked,3000,527.1562718,4
no,355,10/12/17 14:15,1,9,absent,607.7747536,blocked,3000,607.7747536,4
no,356,10/12/17 14:15,1,9,absent,632.6489829,blocked,3000,632.6489829,4
no,357,10/12/17 14:15,1,9,absent,527.7923968,blocked,3000,527.7923968,4
no,358,10/12/17 14:15,1,9,absent,593.4525329,blocked,3000,593.4525329,4
no,359,10/12/17 14:15,1,9,absent,625.4449281,blocked,3000,625.4449281,4
no,360,10/12/17 14:15,1,9,absent,577.1654767,blocked,3000,577.1654767,4
no,361,10/12/17 14:15,1,9,absent,481.0209617,blocked,3000,481.0209617,4
no,362,10/12/17 14:15,1,9,absent,537.0153525,blocked,3000,537.0153525,4
no,363,10/12/17 14:15,1,9,absent,496.7920005,blocked,3000,496.7920005,4
no,364,10/12/17 14:15,1,9,absent,487.8174722,blocked,3000,487.8174722,4
no,365,10/12/17 14:15,1,9,absent,530.4200478,blocked,3000,530.4200478,4
no,366,10/12/17 14:15,1,9,absent,529.237793,blocked,3000,529.237793,4
no,367,10/12/17 14:15,1,9,absent,697.1580033,blocked,3000,697.1580033,4
no,368,10/12/17 14:15,1,9,absent,664.1205701,blocked,3000,664.1205701,4
no,369,10/12/17 14:15,1,9,absent,662.8681671,blocked,3000,662.8681671,4
no,370,10/12/17 14:15,1,9,absent,688.8466326,blocked,3000,688.8466326,4
no,371,10/12/17 14:15,1,9,absent,600.7790905,blocked,3000,600.7790905,4
no,372,10/12/17 14:15,1,9,absent,568.4975475,blocked,3000,568.4975475,4
no,373,10/12/17 14:15,1,9,absent,504.3765668,blocked,3000,504.3765668,4
no,374,10/12/17 14:15,1,9,absent,520.3272536,blocked,3000,520.3272536,4
no,375,10/12/17 14:15,1,9,absent,440.1816737,blocked,3000,440.1816737,4
no,376,10/12/17 14:15,1,9,absent,441.0631464,blocked,3000,441.0631464,4
no,377,10/12/17 14:15,1,9,absent,447.8312555,blocked,3000,447.8312555,4
no,378,10/12/17 14:15,1,9,absent,628.6785916,blocked,3000,628.6785916,4
no,379,10/12/17 14:15,1,9,absent,592.5214431,blocked,3000,592.5214431,4
no,380,10/12/17 14:15,1,9,absent,769.588986,blocked,3000,769.588986,4
no,381,10/12/17 14:15,1,9,absent,456.3209053,blocked,3000,456.3209053,4
no,382,10/12/17 14:15,1,9,absent,512.1958731,blocked,3000,512.1958731,4
no,383,10/12/17 14:15,1,9,absent,576.9700881,blocked,3000,576.9700881,4
no,384,10/12/17 14:15,1,9,absent,488.7851759,blocked,3000,488.7851759,4
no,385,10/12/17 14:15,1,9,absent,688.7983843,blocked,3000,688.7983843,4
no,386,10/12/17 14:15,1,9,absent,536.4216588,blocked,3000,536.4216588,4
no,387,10/12/17 14:15,1,9,absent,600.3889977,blocked,3000,600.3889977,4
no,388,10/12/17 14:15,1,9,absent,736.3198925,blocked,3000,736.3198925,4
no,389,10/12/17 14:15,1,9,absent,513.3302217,blocked,3000,513.3302217,4
no,390,10/12/17 14:15,1,9,absent,729.0655363,blocked,3000,729.0655363,4
no,391,10/12/17 14:15,1,9,absent,720.8297889,blocked,3000,720.8297889,4
no,392,10/12/17 14:15,1,9,absent,672.6636011,blocked,3000,672.6636011,4
no,393,10/12/17 14:15,1,9,absent,631.6573261,blocked,3000,631.6573261,4
no,394,10/12/17 14:15,1,9,absent,640.3892441,blocked,3000,640.3892441,4
no,395,10/12/17 14:15,1,9,absent,648.2082082,blocked,3000,648.2082082,4
no,396,10/12/17 14:15,1,9,absent,614.2749305,blocked,3000,614.2749305,4
no,397,10/12/17 14:15,1,9,absent,1009.0327,blocked,3000,1009.0327,4
no,398,10/12/17 14:15,1,9,absent,615.8592545,blocked,3000,615.8592545,4
no,399,10/12/17 14:15,1,9,absent,672.7977383,blocked,3000,672.7977383,4
no,400,10/12/17 14:15,1,9,absent,632.5572769,blocked,3000,632.5572769,4
no,401,10/12/17 14:15,1,9,absent,527.4272836,blocked,3000,527.4272836,4
no,402,10/12/17 14:15,1,9,absent,728.3270976,blocked,3000,728.3270976,4
no,403,10/12/17 14:15,1,9,absent,569.0785804,blocked,3000,569.0785804,4
no,404,10/12/17 14:15,1,9,absent,543.8573739,blocked,3000,543.8573739,4
no,405,10/12/17 14:15,1,9,absent,616.7143789,blocked,3000,616.7143789,4
no,406,10/12/17 14:15,1,9,absent,615.8113484,blocked,3000,615.8113484,4
no,407,10/12/17 14:15,1,9,absent,584.3654252,blocked,3000,584.3654252,4
no,408,10/12/17 14:15,1,9,absent,480.22572,blocked,3000,480.22572,4
no,409,10/12/17 14:15,1,9,absent,535.0050062,blocked,3000,535.0050062,4
no,410,10/12/17 14:15,1,9,absent,608.136787,blocked,3000,608.136787,4
no,411,10/12/17 14:15,1,9,absent,567.8816116,blocked,3000,567.8816116,4
no,412,10/12/17 14:15,1,9,absent,632.6992844,blocked,3000,632.6992844,4
no,413,10/12/17 14:15,1,9,absent,496.6048244,blocked,3000,496.6048244,4
no,414,10/12/17 14:15,1,9,absent,511.564881,blocked,3000,511.564881,4
no,415,10/12/17 14:15,1,9,absent,543.2479395,blocked,3000,543.2479395,4
no,416,10/12/17 14:15,1,9,absent,619.2934394,blocked,3000,619.2934394,4
no,417,10/12/17 14:15,1,9,absent,615.1348455,blocked,3000,615.1348455,4
no,418,10/12/17 14:15,1,9,absent,471.0120032,blocked,3000,471.0120032,4
no,419,10/12/17 14:15,1,9,absent,463.8531171,blocked,3000,463.8531171,4
no,420,10/12/17 14:15,1,9,absent,576.6470639,blocked,3000,576.6470639,4
no,421,10/12/17 14:15,1,9,absent,504.4624556,blocked,3000,504.4624556,4
no,422,10/12/17 14:15,0,9,absent,471.4599255,blocked,3000,471.4599255,4
no,423,10/12/17 14:15,1,9,absent,576.1810058,blocked,3000,576.1810058,4
no,424,10/12/17 14:15,1,9,absent,607.1328115,blocked,3000,607.1328115,4
no,425,10/12/17 14:15,1,9,absent,487.0379711,blocked,3000,487.0379711,4
no,426,10/12/17 14:15,1,9,absent,750.9357093,blocked,3000,750.9357093,4
no,427,10/12/17 14:15,1,9,absent,632.6722516,blocked,3000,632.6722516,4
no,428,10/12/17 14:15,1,9,absent,432.6289308,blocked,3000,432.6289308,4
no,429,10/12/17 14:15,1,9,absent,627.4645135,blocked,3000,627.4645135,4
no,430,10/12/17 14:15,1,9,absent,536.225928,blocked,3000,536.225928,4
no,431,10/12/17 14:15,1,9,absent,584.0482182,blocked,3000,584.0482182,4
no,432,10/12/17 14:15,1,9,absent,496.1435569,blocked,3000,496.1435569,4
no,433,10/12/17 14:15,1,9,absent,470.7122477,blocked,3000,470.7122477,4
no,434,10/12/17 14:15,1,9,absent,680.7385208,blocked,3000,680.7385208,4
no,435,10/12/17 14:15,1,9,absent,575.4141656,blocked,3000,575.4141656,4
no,436,10/12/17 14:15,1,9,absent,1176.315759,blocked,3000,1176.315759,4
no,437,10/12/17 14:15,1,9,absent,768.243166,blocked,3000,768.243166,4
no,438,10/12/17 14:15,1,9,absent,1127.010432,blocked,3000,1127.010432,4
no,439,10/12/17 14:15,1,9,absent,822.8280902,blocked,3000,822.8280902,4
no,440,10/12/17 14:15,1,9,absent,727.7683068,blocked,3000,727.7683068,4
no,441,10/12/17 14:15,1,9,absent,704.5451279,blocked,3000,704.5451279,4
no,442,10/12/17 14:15,1,9,absent,839.5955765,blocked,3000,839.5955765,4
no,443,10/12/17 14:15,1,9,absent,848.2765087,blocked,3000,848.2765087,4
no,444,10/12/17 14:15,1,9,absent,1264.070542,blocked,3000,1264.070542,4
no,445,10/12/17 14:15,1,9,absent,672.1335541,blocked,3000,672.1335541,4
no,446,10/12/17 14:15,1,9,absent,527.72875,blocked,3000,527.72875,4
no,447,10/12/17 14:15,1,9,absent,543.736582,blocked,3000,543.736582,4
yes,0,10/25/17 10:39,0,5,present,2000.058514,blocked,3016,2000.058514,1p
yes,1,10/25/17 10:39,1,5,present,1040.606943,blocked,3016,1040.606943,1p
yes,2,10/25/17 10:39,1,5,present,678.393516,blocked,3016,678.393516,1p
yes,3,10/25/17 10:39,0,5,present,926.1882943,blocked,3016,926.1882943,1p
yes,4,10/25/17 10:39,1,5,present,639.1276021,blocked,3016,639.1276021,1p
yes,5,10/25/17 10:39,1,5,present,934.9099468,blocked,3016,934.9099468,1p
yes,6,10/25/17 10:39,0,5,present,886.6215984,blocked,3016,886.6215984,1p
yes,7,10/25/17 10:39,1,5,present,750.5531447,blocked,3016,750.5531447,1p
yes,8,10/25/17 10:39,1,5,present,686.2624393,blocked,3016,686.2624393,1p
yes,9,10/25/17 10:39,1,5,present,878.3030418,blocked,3016,878.3030418,1p
yes,10,10/25/17 10:39,1,5,present,798.0917621,blocked,3016,798.0917621,1p
yes,11,10/25/17 10:39,1,5,present,702.9491695,blocked,3016,702.9491695,1p
no,12,10/25/17 10:39,1,5,present,987.5885493,blocked,3016,987.5885493,1
no,13,10/25/17 10:39,1,5,present,932.4893186,blocked,3016,932.4893186,1
no,14,10/25/17 10:39,1,5,present,558.2890943,blocked,3016,558.2890943,1
no,15,10/25/17 10:39,1,5,present,583.1332112,blocked,3016,583.1332112,1
no,16,10/25/17 10:39,1,5,present,695.0525291,blocked,3016,695.0525291,1
no,17,10/25/17 10:39,0,5,present,518.9345541,blocked,3016,518.9345541,1
no,18,10/25/17 10:39,1,5,present,958.7733568,blocked,3016,958.7733568,1
no,19,10/25/17 10:39,1,5,present,629.5422707,blocked,3016,629.5422707,1
no,20,10/25/17 10:39,0,5,present,598.4197138,blocked,3016,598.4197138,1
no,21,10/25/17 10:39,1,5,present,966.2638218,blocked,3016,966.2638218,1
no,22,10/25/17 10:39,1,5,present,1174.129529,blocked,3016,1174.129529,1
no,23,10/25/17 10:39,0,5,present,814.9437685,blocked,3016,814.9437685,1
no,24,10/25/17 10:39,0,5,present,782.7241613,blocked,3016,782.7241613,1
no,25,10/25/17 10:39,1,5,present,958.6323759,blocked,3016,958.6323759,1
no,26,10/25/17 10:39,0,5,present,830.5132594,blocked,3016,830.5132594,1
no,27,10/25/17 10:39,1,5,present,717.1923452,blocked,3016,717.1923452,1
no,28,10/25/17 10:39,1,5,present,549.2495505,blocked,3016,549.2495505,1
no,29,10/25/17 10:39,1,5,present,541.9315476,blocked,3016,541.9315476,1
no,30,10/25/17 10:39,1,5,present,670.7018453,blocked,3016,670.7018453,1
no,31,10/25/17 10:39,0,5,present,1110.753146,blocked,3016,1110.753146,1
no,32,10/25/17 10:39,1,5,present,774.6249464,blocked,3016,774.6249464,1
no,33,10/25/17 10:39,1,5,present,758.4754491,blocked,3016,758.4754491,1
no,34,10/25/17 10:39,1,5,present,822.3661383,blocked,3016,822.3661383,1
no,35,10/25/17 10:39,1,5,present,678.1823868,blocked,3016,678.1823868,1
no,36,10/25/17 10:39,1,5,present,693.904493,blocked,3016,693.904493,1
no,37,10/25/17 10:39,1,5,present,630.8901437,blocked,3016,630.8901437,1
no,38,10/25/17 10:39,1,5,present,726.5508069,blocked,3016,726.5508069,1
no,39,10/25/17 10:39,1,5,present,838.5460901,blocked,3016,838.5460901,1
no,40,10/25/17 10:39,1,5,present,498.4232041,blocked,3016,498.4232041,1
no,41,10/25/17 10:39,1,5,present,537.1970536,blocked,3016,537.1970536,1
no,42,10/25/17 10:39,0,5,present,790.1828029,blocked,3016,790.1828029,1
no,43,10/25/17 10:39,1,5,present,798.9273818,blocked,3016,798.9273818,1
no,44,10/25/17 10:39,1,5,present,602.8127055,blocked,3016,602.8127055,1
no,45,10/25/17 10:39,0,5,present,1086.72138,blocked,3016,1086.72138,1
no,46,10/25/17 10:39,1,5,present,702.1460576,blocked,3016,702.1460576,1
no,47,10/25/17 10:39,1,5,present,1422.33322,blocked,3016,1422.33322,1
no,48,10/25/17 10:39,1,5,present,717.9519994,blocked,3016,717.9519994,1
no,49,10/25/17 10:39,0,5,present,1157.997483,blocked,3016,1157.997483,1
no,50,10/25/17 10:39,1,5,present,574.7759875,blocked,3016,574.7759875,1
no,51,10/25/17 10:39,0,5,present,750.6954943,blocked,3016,750.6954943,1
no,52,10/25/17 10:39,1,5,present,782.5297993,blocked,3016,782.5297993,1
no,53,10/25/17 10:39,0,5,present,654.4017859,blocked,3016,654.4017859,1
no,54,10/25/17 10:39,1,5,present,982.1843962,blocked,3016,982.1843962,1
no,55,10/25/17 10:39,1,5,present,765.9789172,blocked,3016,765.9789172,1
no,56,10/25/17 10:39,1,5,present,821.9247176,blocked,3016,821.9247176,1
no,57,10/25/17 10:39,1,5,present,653.7191236,blocked,3016,653.7191236,1
no,58,10/25/17 10:39,1,5,present,581.6857618,blocked,3016,581.6857618,1
no,59,10/25/17 10:39,1,5,present,526.4318628,blocked,3016,526.4318628,1
no,60,10/25/17 10:39,1,5,present,741.3411388,blocked,3016,741.3411388,1
no,61,10/25/17 10:39,1,5,present,518.0811407,blocked,3016,518.0811407,1
no,62,10/25/17 10:39,1,5,present,606.1038564,blocked,3016,606.1038564,1
no,63,10/25/17 10:39,1,5,present,541.8610572,blocked,3016,541.8610572,1
no,64,10/25/17 10:39,0,5,present,485.7794087,blocked,3016,485.7794087,1
no,65,10/25/17 10:39,1,5,present,630.6533506,blocked,3016,630.6533506,1
no,66,10/25/17 10:39,0,5,present,638.3741072,blocked,3016,638.3741072,1
no,67,10/25/17 10:39,1,5,present,1102.29703,blocked,3016,1102.29703,1
no,68,10/25/17 10:39,1,5,present,382.0664102,blocked,3016,382.0664102,1
no,69,10/25/17 10:39,1,5,present,590.1206618,blocked,3016,590.1206618,1
no,70,10/25/17 10:39,1,5,present,798.0216139,blocked,3016,798.0216139,1
no,71,10/25/17 10:39,1,5,present,573.7696167,blocked,3016,573.7696167,1
no,72,10/25/17 10:39,1,5,present,669.5941872,blocked,3016,669.5941872,1
no,73,10/25/17 10:39,1,5,present,749.4776521,blocked,3016,749.4776521,1
no,74,10/25/17 10:39,1,5,present,542.2155625,blocked,3016,542.2155625,1
no,75,10/25/17 10:39,1,5,present,606.2308076,blocked,3016,606.2308076,1
no,76,10/25/17 10:39,1,5,present,918.1493042,blocked,3016,918.1493042,1
no,77,10/25/17 10:39,0,5,present,661.936393,blocked,3016,661.936393,1
no,78,10/25/17 10:39,1,5,present,781.6811765,blocked,3016,781.6811765,1
no,79,10/25/17 10:39,1,5,present,813.5818658,blocked,3016,813.5818658,1
no,80,10/25/17 10:39,1,5,present,837.4928397,blocked,3016,837.4928397,1
no,81,10/25/17 10:39,0,5,present,695.274266,blocked,3016,695.274266,1
no,82,10/25/17 10:39,0,5,present,686.2001614,blocked,3016,686.2001614,1
no,83,10/25/17 10:39,0,5,present,701.8582786,blocked,3016,701.8582786,1
no,84,10/25/17 10:39,1,5,present,821.9527769,blocked,3016,821.9527769,1
no,85,10/25/17 10:39,1,5,present,793.7928717,blocked,3016,793.7928717,1
no,86,10/25/17 10:39,1,5,present,733.5919808,blocked,3016,733.5919808,1
no,87,10/25/17 10:39,1,5,present,1083.17051,blocked,3016,1083.17051,1
no,88,10/25/17 10:39,1,5,present,718.2640736,blocked,3016,718.2640736,1
no,89,10/25/17 10:39,1,5,present,644.9481964,blocked,3016,644.9481964,1
no,90,10/25/17 10:39,1,5,present,637.9415833,blocked,3016,637.9415833,1
no,91,10/25/17 10:39,1,5,present,597.7219953,blocked,3016,597.7219953,1
no,92,10/25/17 10:39,0,5,present,965.7443825,blocked,3016,965.7443825,1
no,93,10/25/17 10:39,1,5,present,1139.4496,blocked,3016,1139.4496,1
no,94,10/25/17 10:39,1,5,present,597.3271119,blocked,3016,597.3271119,1
no,95,10/25/17 10:39,1,5,present,766.2027072,blocked,3016,766.2027072,1
no,96,10/25/17 10:39,1,5,present,781.960743,blocked,3016,781.960743,1
no,97,10/25/17 10:39,1,5,present,629.8680323,blocked,3016,629.8680323,1
no,98,10/25/17 10:39,1,5,present,645.7061397,blocked,3016,645.7061397,1
no,99,10/25/17 10:39,1,5,present,549.4617062,blocked,3016,549.4617062,1
no,100,10/25/17 10:39,0,5,present,405.2687157,blocked,3016,405.2687157,1
no,101,10/25/17 10:39,1,5,present,694.2480483,blocked,3016,694.2480483,1
no,102,10/25/17 10:39,0,5,present,684.2568836,blocked,3016,684.2568836,1
no,103,10/25/17 10:39,1,5,present,798.0681513,blocked,3016,798.0681513,1
no,104,10/25/17 10:39,1,5,present,821.6858713,blocked,3016,821.6858713,1
no,105,10/25/17 10:39,1,5,present,725.5526485,blocked,3016,725.5526485,1
no,106,10/25/17 10:39,0,5,present,477.6353673,blocked,3016,477.6353673,1
no,107,10/25/17 10:39,1,5,present,917.5090731,blocked,3016,917.5090731,1
no,108,10/25/17 10:39,1,5,present,709.3682482,blocked,3016,709.3682482,1
no,109,10/25/17 10:39,1,5,present,717.0400721,blocked,3016,717.0400721,1
no,110,10/25/17 10:39,0,5,present,1214.086659,blocked,3016,1214.086659,1
no,111,10/25/17 10:39,1,5,present,869.776778,blocked,3016,869.776778,1
yes,112,10/25/17 10:39,0,9,present,1223.928631,blocked,3016,1223.928631,2p
yes,113,10/25/17 10:39,0,9,present,991.6465404,blocked,3016,991.6465404,2p
yes,114,10/25/17 10:39,1,9,present,1024.547783,blocked,3016,1024.547783,2p
yes,115,10/25/17 10:39,1,9,present,1160.535823,blocked,3016,1160.535823,2p
yes,116,10/25/17 10:39,1,9,present,960.3149075,blocked,3016,960.3149075,2p
yes,117,10/25/17 10:39,1,9,present,857.1340092,blocked,3016,857.1340092,2p
yes,118,10/25/17 10:39,1,9,present,999.9041878,blocked,3016,999.9041878,2p
yes,119,10/25/17 10:39,1,9,present,740.3628273,blocked,3016,740.3628273,2p
yes,120,10/25/17 10:39,0,9,present,743.5585081,blocked,3016,743.5585081,2p
yes,121,10/25/17 10:39,1,9,present,871.4230378,blocked,3016,871.4230378,2p
yes,122,10/25/17 10:39,1,9,present,728.1779042,blocked,3016,728.1779042,2p
yes,123,10/25/17 10:39,1,9,present,736.1925991,blocked,3016,736.1925991,2p
no,124,10/25/17 10:39,0,9,present,732.5712381,blocked,3016,732.5712381,2
no,125,10/25/17 10:39,1,9,present,1062.155803,blocked,3016,1062.155803,2
no,126,10/25/17 10:39,1,9,present,752.0266002,blocked,3016,752.0266002,2
no,127,10/25/17 10:39,1,9,present,912.0327185,blocked,3016,912.0327185,2
no,128,10/25/17 10:39,1,9,present,679.9275386,blocked,3016,679.9275386,2
no,129,10/25/17 10:39,1,9,present,911.7117475,blocked,3016,911.7117475,2
no,130,10/25/17 10:39,1,9,present,607.6748351,blocked,3016,607.6748351,2
no,131,10/25/17 10:39,1,9,present,640.2725585,blocked,3016,640.2725585,2
no,132,10/25/17 10:39,1,9,present,696.3969803,blocked,3016,696.3969803,2
no,133,10/25/17 10:39,1,9,present,648.2044442,blocked,3016,648.2044442,2
no,134,10/25/17 10:39,0,9,present,744.1344082,blocked,3016,744.1344082,2
no,135,10/25/17 10:39,1,9,present,983.9298901,blocked,3016,983.9298901,2
no,136,10/25/17 10:39,1,9,present,943.7335708,blocked,3016,943.7335708,2
no,137,10/25/17 10:39,1,9,present,783.4981874,blocked,3016,783.4981874,2
no,138,10/25/17 10:39,1,9,present,856.3257644,blocked,3016,856.3257644,2
no,139,10/25/17 10:39,0,9,present,632.0679501,blocked,3016,632.0679501,2
no,140,10/25/17 10:39,1,9,present,815.9891486,blocked,3016,815.9891486,2
no,141,10/25/17 10:39,1,9,present,719.8620851,blocked,3016,719.8620851,2
no,142,10/25/17 10:39,0,9,present,551.8737797,blocked,3016,551.8737797,2
no,143,10/25/17 10:39,1,9,present,687.7074934,blocked,3016,687.7074934,2
no,144,10/25/17 10:39,1,9,present,823.4385512,blocked,3016,823.4385512,2
no,145,10/25/17 10:39,1,9,present,896.2168532,blocked,3016,896.2168532,2
no,146,10/25/17 10:39,1,9,present,680.1434583,blocked,3016,680.1434583,2
no,147,10/25/17 10:39,1,9,present,631.9457894,blocked,3016,631.9457894,2
no,148,10/25/17 10:39,1,9,present,647.7941624,blocked,3016,647.7941624,2
no,149,10/25/17 10:39,1,9,present,991.6390123,blocked,3016,991.6390123,2
no,150,10/25/17 10:39,1,9,present,727.5869479,blocked,3016,727.5869479,2
no,151,10/25/17 10:39,1,9,present,647.5313631,blocked,3016,647.5313631,2
no,152,10/25/17 10:39,1,9,present,399.2137236,blocked,3016,399.2137236,2
no,153,10/25/17 10:39,1,9,present,640.0888043,blocked,3016,640.0888043,2
no,154,10/25/17 10:39,1,9,present,656.0049302,blocked,3016,656.0049302,2
no,155,10/25/17 10:39,0,9,present,503.8119589,blocked,3016,503.8119589,2
no,156,10/25/17 10:39,1,9,present,727.7111617,blocked,3016,727.7111617,2
no,157,10/25/17 10:39,1,9,present,959.576811,blocked,3016,959.576811,2
no,158,10/25/17 10:39,1,9,present,929.4520703,blocked,3016,929.4520703,2
no,159,10/25/17 10:39,1,9,present,647.2606935,blocked,3016,647.2606935,2
no,160,10/25/17 10:39,1,9,present,720.294609,blocked,3016,720.294609,2
no,161,10/25/17 10:39,1,9,present,711.9462822,blocked,3016,711.9462822,2
no,162,10/25/17 10:39,1,9,present,705.7930825,blocked,3016,705.7930825,2
no,163,10/25/17 10:39,1,9,present,663.8197881,blocked,3016,663.8197881,2
no,164,10/25/17 10:39,1,9,present,583.6707864,blocked,3016,583.6707864,2
no,165,10/25/17 10:39,1,9,present,591.3758024,blocked,3016,591.3758024,2
no,166,10/25/17 10:39,0,9,present,577.1114112,blocked,3016,577.1114112,2
no,167,10/25/17 10:39,0,9,present,799.9932931,blocked,3016,799.9932931,2
no,168,10/25/17 10:39,1,9,present,687.9501037,blocked,3016,687.9501037,2
no,169,10/25/17 10:39,1,9,present,911.7818957,blocked,3016,911.7818957,2
no,170,10/25/17 10:39,1,9,present,689.5984166,blocked,3016,689.5984166,2
no,171,10/25/17 10:39,1,9,present,911.4434732,blocked,3016,911.4434732,2
no,172,10/25/17 10:39,1,9,present,583.2577671,blocked,3016,583.2577671,2
no,173,10/25/17 10:39,1,9,present,695.0087292,blocked,3016,695.0087292,2
no,174,10/25/17 10:39,1,9,present,635.0514751,blocked,3016,635.0514751,2
no,175,10/25/17 10:39,0,9,present,447.8699225,blocked,3016,447.8699225,2
no,176,10/25/17 10:39,1,9,present,1046.709499,blocked,3016,1046.709499,2
no,177,10/25/17 10:39,1,9,present,743.351143,blocked,3016,743.351143,2
no,178,10/25/17 10:39,1,9,present,683.483884,blocked,3016,683.483884,2
no,179,10/25/17 10:39,1,9,present,647.2661685,blocked,3016,647.2661685,2
no,180,10/25/17 10:39,1,9,present,741.9834231,blocked,3016,741.9834231,2
no,181,10/25/17 10:39,1,9,present,631.0167528,blocked,3016,631.0167528,2
no,182,10/25/17 10:39,1,9,present,796.7278063,blocked,3016,796.7278063,2
no,183,10/25/17 10:39,1,9,present,703.5609992,blocked,3016,703.5609992,2
no,184,10/25/17 10:39,1,9,present,734.3564257,blocked,3016,734.3564257,2
no,185,10/25/17 10:39,0,9,present,679.2198966,blocked,3016,679.2198966,2
no,186,10/25/17 10:39,1,9,present,778.1450201,blocked,3016,778.1450201,2
no,187,10/25/17 10:39,1,9,present,838.9738234,blocked,3016,838.9738234,2
no,188,10/25/17 10:39,1,9,present,606.9541901,blocked,3016,606.9541901,2
no,189,10/25/17 10:39,1,9,present,591.763842,blocked,3016,591.763842,2
no,190,10/25/17 10:39,1,9,present,709.6844287,blocked,3016,709.6844287,2
no,191,10/25/17 10:39,0,9,present,727.2392863,blocked,3016,727.2392863,2
no,192,10/25/17 10:39,1,9,present,559.3248932,blocked,3016,559.3248932,2
no,193,10/25/17 10:39,1,9,present,694.1679767,blocked,3016,694.1679767,2
no,194,10/25/17 10:39,1,9,present,837.9739541,blocked,3016,837.9739541,2
no,195,10/25/17 10:39,1,9,present,886.7423903,blocked,3016,886.7423903,2
no,196,10/25/17 10:39,1,9,present,535.6267593,blocked,3016,535.6267593,2
no,197,10/25/17 10:39,1,9,present,751.4000565,blocked,3016,751.4000565,2
no,198,10/25/17 10:39,0,9,present,886.2766743,blocked,3016,886.2766743,2
no,199,10/25/17 10:39,1,9,present,1183.2423,blocked,3016,1183.2423,2
no,200,10/25/17 10:39,1,9,present,639.0909881,blocked,3016,639.0909881,2
no,201,10/25/17 10:39,1,9,present,480.8994854,blocked,3016,480.8994854,2
no,202,10/25/17 10:39,1,9,present,694.7575642,blocked,3016,694.7575642,2
no,203,10/25/17 10:39,1,9,present,615.509882,blocked,3016,615.509882,2
no,204,10/25/17 10:39,1,9,present,759.4308342,blocked,3016,759.4308342,2
no,205,10/25/17 10:39,1,9,present,655.2048979,blocked,3016,655.2048979,2
no,206,10/25/17 10:39,1,9,present,680.2190816,blocked,3016,680.2190816,2
no,207,10/25/17 10:39,1,9,present,629.9258619,blocked,3016,629.9258619,2
no,208,10/25/17 10:39,1,9,present,670.7576217,blocked,3016,670.7576217,2
no,209,10/25/17 10:39,1,9,present,725.8034713,blocked,3016,725.8034713,2
no,210,10/25/17 10:39,1,9,present,736.5734527,blocked,3016,736.5734527,2
no,211,10/25/17 10:39,1,9,present,735.2313968,blocked,3016,735.2313968,2
no,212,10/25/17 10:39,1,9,present,607.177638,blocked,3016,607.177638,2
no,213,10/25/17 10:39,1,9,present,767.1471423,blocked,3016,767.1471423,2
no,214,10/25/17 10:39,1,9,present,584.9929954,blocked,3016,584.9929954,2
no,215,10/25/17 10:39,1,9,present,606.5839442,blocked,3016,606.5839442,2
no,216,10/25/17 10:39,1,9,present,534.5060981,blocked,3016,534.5060981,2
no,217,10/25/17 10:39,1,9,present,789.583292,blocked,3016,789.583292,2
no,218,10/25/17 10:39,1,9,present,762.3137564,blocked,3016,762.3137564,2
no,219,10/25/17 10:39,1,9,present,599.0866355,blocked,3016,599.0866355,2
no,220,10/25/17 10:39,1,9,present,742.9928736,blocked,3016,742.9928736,2
no,221,10/25/17 10:39,1,9,present,701.7703367,blocked,3016,701.7703367,2
no,222,10/25/17 10:39,0,9,present,779.6865708,blocked,3016,779.6865708,2
no,223,10/25/17 10:39,1,9,present,550.598108,blocked,3016,550.598108,2
yes,224,10/25/17 10:39,1,5,absent,1317.746277,blocked,3016,1317.746277,3p
yes,225,10/25/17 10:39,0,5,absent,605.5597797,blocked,3016,605.5597797,3p
yes,226,10/25/17 10:39,1,5,absent,862.1795508,blocked,3016,862.1795508,3p
yes,227,10/25/17 10:39,1,5,absent,860.1760482,blocked,3016,860.1760482,3p
yes,228,10/25/17 10:39,1,5,absent,582.8837571,blocked,3016,582.8837571,3p
yes,229,10/25/17 10:39,1,5,absent,814.9489013,blocked,3016,814.9489013,3p
yes,230,10/25/17 10:39,1,5,absent,591.7220952,blocked,3016,591.7220952,3p
yes,231,10/25/17 10:39,1,5,absent,670.5834487,blocked,3016,670.5834487,3p
yes,232,10/25/17 10:39,1,5,absent,606.3762369,blocked,3016,606.3762369,3p
yes,233,10/25/17 10:39,1,5,absent,542.4065026,blocked,3016,542.4065026,3p
yes,234,10/25/17 10:39,0,5,absent,646.0928106,blocked,3016,646.0928106,3p
yes,235,10/25/17 10:39,1,5,absent,623.0646781,blocked,3016,623.0646781,3p
no,236,10/25/17 10:39,1,5,absent,714.2851277,blocked,3016,714.2851277,3
no,237,10/25/17 10:39,1,5,absent,669.1349728,blocked,3016,669.1349728,3
no,238,10/25/17 10:39,1,5,absent,534.9187752,blocked,3016,534.9187752,3
no,239,10/25/17 10:39,1,5,absent,670.6943172,blocked,3016,670.6943172,3
no,240,10/25/17 10:39,1,5,absent,590.6075934,blocked,3016,590.6075934,3
no,241,10/25/17 10:39,1,5,absent,502.6721353,blocked,3016,502.6721353,3
no,242,10/25/17 10:39,1,5,absent,1094.311079,blocked,3016,1094.311079,3
no,243,10/25/17 10:39,1,5,absent,873.3331235,blocked,3016,873.3331235,3
no,244,10/25/17 10:39,1,5,absent,622.1571991,blocked,3016,622.1571991,3
no,245,10/25/17 10:39,0,5,absent,703.0593536,blocked,3016,703.0593536,3
no,246,10/25/17 10:39,1,5,absent,726.8539842,blocked,3016,726.8539842,3
no,247,10/25/17 10:39,1,5,absent,466.6617848,blocked,3016,466.6617848,3
no,248,10/25/17 10:39,1,5,absent,533.3388996,blocked,3016,533.3388996,3
no,249,10/25/17 10:39,1,5,absent,758.401879,blocked,3016,758.401879,3
no,250,10/25/17 10:39,1,5,absent,670.2546074,blocked,3016,670.2546074,3
no,251,10/25/17 10:39,1,5,absent,570.0811872,blocked,3016,570.0811872,3
no,252,10/25/17 10:39,1,5,absent,925.9148872,blocked,3016,925.9148872,3
no,253,10/25/17 10:39,1,5,absent,710.8533381,blocked,3016,710.8533381,3
no,254,10/25/17 10:39,1,5,absent,654.6378947,blocked,3016,654.6378947,3
no,255,10/25/17 10:39,1,5,absent,686.4742529,blocked,3016,686.4742529,3
no,256,10/25/17 10:39,1,5,absent,598.4286106,blocked,3016,598.4286106,3
no,257,10/25/17 10:39,1,5,absent,718.1617598,blocked,3016,718.1617598,3
no,258,10/25/17 10:39,1,5,absent,510.0927942,blocked,3016,510.0927942,3
no,259,10/25/17 10:39,1,5,absent,534.8705268,blocked,3016,534.8705268,3
no,260,10/25/17 10:39,1,5,absent,698.679365,blocked,3016,698.679365,3
no,261,10/25/17 10:39,1,5,absent,854.7445201,blocked,3016,854.7445201,3
no,262,10/25/17 10:39,1,5,absent,918.3919145,blocked,3016,918.3919145,3
no,263,10/25/17 10:39,1,5,absent,606.3608385,blocked,3016,606.3608385,3
no,264,10/25/17 10:39,1,5,absent,702.2466604,blocked,3016,702.2466604,3
no,265,10/25/17 10:39,1,5,absent,694.0950909,blocked,3016,694.0950909,3
no,266,10/25/17 10:39,1,5,absent,821.9072661,blocked,3016,821.9072661,3
no,267,10/25/17 10:39,1,5,absent,654.7966693,blocked,3016,654.7966693,3
no,268,10/25/17 10:39,1,5,absent,670.7983419,blocked,3016,670.7983419,3
no,269,10/25/17 10:39,1,5,absent,774.3871267,blocked,3016,774.3871267,3
no,270,10/25/17 10:39,1,5,absent,1022.320148,blocked,3016,1022.320148,3
no,271,10/25/17 10:39,1,5,absent,710.1901805,blocked,3016,710.1901805,3
no,272,10/25/17 10:39,1,5,absent,661.9949069,blocked,3016,661.9949069,3
no,273,10/25/17 10:39,1,5,absent,683.6327352,blocked,3016,683.6327352,3
no,274,10/25/17 10:39,1,5,absent,510.8630562,blocked,3016,510.8630562,3
no,275,10/25/17 10:39,1,5,absent,686.639529,blocked,3016,686.639529,3
no,276,10/25/17 10:39,1,5,absent,518.2970604,blocked,3016,518.2970604,3
no,277,10/25/17 10:39,1,5,absent,766.3392397,blocked,3016,766.3392397,3
no,278,10/25/17 10:39,1,5,absent,710.0841026,blocked,3016,710.0841026,3
no,279,10/25/17 10:39,1,5,absent,614.0682498,blocked,3016,614.0682498,3
no,280,10/25/17 10:39,1,5,absent,462.8652243,blocked,3016,462.8652243,3
no,281,10/25/17 10:39,1,5,absent,614.5377298,blocked,3016,614.5377298,3
no,282,10/25/17 10:39,1,5,absent,718.521398,blocked,3016,718.521398,3
no,283,10/25/17 10:39,0,5,absent,621.7257018,blocked,3016,621.7257018,3
no,284,10/25/17 10:39,1,5,absent,646.2334493,blocked,3016,646.2334493,3
no,285,10/25/17 10:39,1,5,absent,574.0009349,blocked,3016,574.0009349,3
no,286,10/25/17 10:39,1,5,absent,597.8653715,blocked,3016,597.8653715,3
no,287,10/25/17 10:39,1,5,absent,509.6948311,blocked,3016,509.6948311,3
no,288,10/25/17 10:39,1,5,absent,653.4258697,blocked,3016,653.4258697,3
no,289,10/25/17 10:39,1,5,absent,628.6159715,blocked,3016,628.6159715,3
no,290,10/25/17 10:39,1,5,absent,814.4650494,blocked,3016,814.4650494,3
no,291,10/25/17 10:39,1,5,absent,670.2706901,blocked,3016,670.2706901,3
no,292,10/25/17 10:39,1,5,absent,750.2024034,blocked,3016,750.2024034,3
no,293,10/25/17 10:39,1,5,absent,1093.759474,blocked,3016,1093.759474,3
no,294,10/25/17 10:39,1,5,absent,565.6902486,blocked,3016,565.6902486,3
no,295,10/25/17 10:39,1,5,absent,637.7318229,blocked,3016,637.7318229,3
no,296,10/25/17 10:39,1,5,absent,605.5135845,blocked,3016,605.5135845,3
no,297,10/25/17 10:39,1,5,absent,949.2841798,blocked,3016,949.2841798,3
no,298,10/25/17 10:39,1,5,absent,814.1776126,blocked,3016,814.1776126,3
no,299,10/25/17 10:39,0,5,absent,750.1158302,blocked,3016,750.1158302,3
no,300,10/25/17 10:39,1,5,absent,941.9001349,blocked,3016,941.9001349,3
no,301,10/25/17 10:39,1,5,absent,613.7161398,blocked,3016,613.7161398,3
no,302,10/25/17 10:39,1,5,absent,797.649657,blocked,3016,797.649657,3
no,303,10/25/17 10:39,1,5,absent,917.4912794,blocked,3016,917.4912794,3
no,304,10/25/17 10:39,1,5,absent,822.2980432,blocked,3016,822.2980432,3
no,305,10/25/17 10:39,1,5,absent,669.2810865,blocked,3016,669.2810865,3
no,306,10/25/17 10:39,1,5,absent,549.9459003,blocked,3016,549.9459003,3
no,307,10/25/17 10:39,1,5,absent,741.8232798,blocked,3016,741.8232798,3
no,308,10/25/17 10:39,1,5,absent,525.5507322,blocked,3016,525.5507322,3
no,309,10/25/17 10:39,1,5,absent,595.5080479,blocked,3016,595.5080479,3
no,310,10/25/17 10:39,1,5,absent,581.4517062,blocked,3016,581.4517062,3
no,311,10/25/17 10:39,1,5,absent,605.3267506,blocked,3016,605.3267506,3
no,312,10/25/17 10:39,1,5,absent,630.2091924,blocked,3016,630.2091924,3
no,313,10/25/17 10:39,1,5,absent,677.7895566,blocked,3016,677.7895566,3
no,314,10/25/17 10:39,1,5,absent,693.9489772,blocked,3016,693.9489772,3
no,315,10/25/17 10:39,1,5,absent,629.6380829,blocked,3016,629.6380829,3
no,316,10/25/17 10:39,1,5,absent,653.5220241,blocked,3016,653.5220241,3
no,317,10/25/17 10:39,1,5,absent,642.2798251,blocked,3016,642.2798251,3
no,318,10/25/17 10:39,1,5,absent,630.3508576,blocked,3016,630.3508576,3
no,319,10/25/17 10:39,1,5,absent,742.0480964,blocked,3016,742.0480964,3
no,320,10/25/17 10:39,1,5,absent,670.033897,blocked,3016,670.033897,3
no,321,10/25/17 10:39,0,5,absent,533.6540534,blocked,3016,533.6540534,3
no,322,10/25/17 10:39,1,5,absent,781.806759,blocked,3016,781.806759,3
no,323,10/25/17 10:39,1,5,absent,533.4418977,blocked,3016,533.4418977,3
no,324,10/25/17 10:39,1,5,absent,526.3192834,blocked,3016,526.3192834,3
no,325,10/25/17 10:39,1,5,absent,581.3921657,blocked,3016,581.3921657,3
no,326,10/25/17 10:39,1,5,absent,526.0725668,blocked,3016,526.0725668,3
no,327,10/25/17 10:39,1,5,absent,500.9341695,blocked,3016,500.9341695,3
no,328,10/25/17 10:39,1,5,absent,581.89518,blocked,3016,581.89518,3
no,329,10/25/17 10:39,1,5,absent,613.6665227,blocked,3016,613.6665227,3
no,330,10/25/17 10:39,1,5,absent,525.4340466,blocked,3016,525.4340466,3
no,331,10/25/17 10:39,1,5,absent,541.5335846,blocked,3016,541.5335846,3
no,332,10/25/17 10:39,1,5,absent,564.2575132,blocked,3016,564.2575132,3
no,333,10/25/17 10:39,0,5,absent,765.1456928,blocked,3016,765.1456928,3
no,334,10/25/17 10:39,0,5,absent,404.908051,blocked,3016,404.908051,3
no,335,10/25/17 10:39,0,5,absent,717.8387357,blocked,3016,717.8387357,3
yes,336,10/25/17 10:39,1,9,absent,1141.920187,blocked,3016,1141.920187,4p
yes,337,10/25/17 10:39,1,9,absent,550.9721179,blocked,3016,550.9721179,4p
yes,338,10/25/17 10:39,1,9,absent,655.6097047,blocked,3016,655.6097047,4p
yes,339,10/25/17 10:39,1,9,absent,607.5639667,blocked,3016,607.5639667,4p
yes,340,10/25/17 10:39,1,9,absent,559.405307,blocked,3016,559.405307,4p
yes,341,10/25/17 10:39,1,9,absent,592.3643795,blocked,3016,592.3643795,4p
yes,342,10/25/17 10:39,1,9,absent,576.1101731,blocked,3016,576.1101731,4p
yes,343,10/25/17 10:39,1,9,absent,872.057794,blocked,3016,872.057794,4p
yes,344,10/25/17 10:39,1,9,absent,599.8117289,blocked,3016,599.8117289,4p
yes,345,10/25/17 10:39,1,9,absent,663.6569073,blocked,3016,663.6569073,4p
yes,346,10/25/17 10:39,0,9,absent,775.4065006,blocked,3016,775.4065006,4p
yes,347,10/25/17 10:39,0,9,absent,711.4973334,blocked,3016,711.4973334,4p
no,348,10/25/17 10:39,1,9,absent,730.9978641,blocked,3016,730.9978641,4
no,349,10/25/17 10:39,1,9,absent,629.8276543,blocked,3016,629.8276543,4
no,350,10/25/17 10:39,1,9,absent,575.4165609,blocked,3016,575.4165609,4
no,351,10/25/17 10:39,1,9,absent,863.4904677,blocked,3016,863.4904677,4
no,352,10/25/17 10:39,1,9,absent,728.3069086,blocked,3016,728.3069086,4
no,353,10/25/17 10:39,1,9,absent,800.0911585,blocked,3016,800.0911585,4
no,354,10/25/17 10:39,1,9,absent,656.0545473,blocked,3016,656.0545473,4
no,355,10/25/17 10:39,1,9,absent,863.8189669,blocked,3016,863.8189669,4
no,356,10/25/17 10:39,1,9,absent,695.8306614,blocked,3016,695.8306614,4
no,357,10/25/17 10:39,1,9,absent,711.5082833,blocked,3016,711.5082833,4
no,358,10/25/17 10:39,1,9,absent,704.5557357,blocked,3016,704.5557357,4
no,359,10/25/17 10:39,1,9,absent,728.2018572,blocked,3016,728.2018572,4
no,360,10/25/17 10:39,1,9,absent,416.1615422,blocked,3016,416.1615422,4
no,361,10/25/17 10:39,1,9,absent,581.8582239,blocked,3016,581.8582239,4
no,362,10/25/17 10:39,1,9,absent,407.8313513,blocked,3016,407.8313513,4
no,363,10/25/17 10:39,1,9,absent,598.8334174,blocked,3016,598.8334174,4
no,364,10/25/17 10:39,1,9,absent,735.46819,blocked,3016,735.46819,4
no,365,10/25/17 10:39,1,9,absent,656.5500335,blocked,3016,656.5500335,4
no,366,10/25/17 10:39,1,9,absent,584.2364208,blocked,3016,584.2364208,4
no,367,10/25/17 10:39,1,9,absent,527.0584065,blocked,3016,527.0584065,4
no,368,10/25/17 10:39,1,9,absent,609.8740685,blocked,3016,609.8740685,4
no,369,10/25/17 10:39,1,9,absent,567.8761367,blocked,3016,567.8761367,4
no,370,10/25/17 10:39,1,9,absent,710.6647933,blocked,3016,710.6647933,4
no,371,10/25/17 10:39,0,9,absent,466.8900233,blocked,3016,466.8900233,4
no,372,10/25/17 10:39,1,9,absent,520.5130609,blocked,3016,520.5130609,4
no,373,10/25/17 10:39,0,9,absent,672.289249,blocked,3016,672.289249,4
no,374,10/25/17 10:39,1,9,absent,600.1563108,blocked,3016,600.1563108,4
no,375,10/25/17 10:39,1,9,absent,639.9409797,blocked,3016,639.9409797,4
no,376,10/25/17 10:39,1,9,absent,591.8870292,blocked,3016,591.8870292,4
no,377,10/25/17 10:39,1,9,absent,703.657838,blocked,3016,703.657838,4
no,378,10/25/17 10:39,1,9,absent,639.3869795,blocked,3016,639.3869795,4
no,379,10/25/17 10:39,1,9,absent,671.4426793,blocked,3016,671.4426793,4
no,380,10/25/17 10:39,1,9,absent,759.425017,blocked,3016,759.425017,4
no,381,10/25/17 10:39,1,9,absent,639.1320505,blocked,3016,639.1320505,4
no,382,10/25/17 10:39,1,9,absent,535.9778427,blocked,3016,535.9778427,4
no,383,10/25/17 10:39,1,9,absent,662.8277891,blocked,3016,662.8277891,4
no,384,10/25/17 10:39,1,9,absent,602.8229711,blocked,3016,602.8229711,4
no,385,10/25/17 10:39,1,9,absent,614.5438892,blocked,3016,614.5438892,4
no,386,10/25/17 10:39,1,9,absent,590.2092882,blocked,3016,590.2092882,4
no,387,10/25/17 10:39,1,9,absent,591.1311389,blocked,3016,591.1311389,4
no,388,10/25/17 10:39,1,9,absent,622.0254573,blocked,3016,622.0254573,4
no,389,10/25/17 10:39,1,9,absent,862.0163278,blocked,3016,862.0163278,4
no,390,10/25/17 10:39,1,9,absent,615.8999747,blocked,3016,615.8999747,4
no,391,10/25/17 10:39,1,9,absent,647.6959549,blocked,3016,647.6959549,4
no,392,10/25/17 10:39,1,9,absent,727.1626365,blocked,3016,727.1626365,4
no,393,10/25/17 10:39,1,9,absent,631.4708344,blocked,3016,631.4708344,4
no,394,10/25/17 10:39,1,9,absent,831.2516981,blocked,3016,831.2516981,4
no,395,10/25/17 10:39,1,9,absent,551.1630581,blocked,3016,551.1630581,4
no,396,10/25/17 10:39,1,9,absent,807.8512665,blocked,3016,807.8512665,4
no,397,10/25/17 10:39,1,9,absent,799.8050905,blocked,3016,799.8050905,4
no,398,10/25/17 10:39,1,9,absent,655.7065435,blocked,3016,655.7065435,4
no,399,10/25/17 10:39,1,9,absent,727.447678,blocked,3016,727.447678,4
no,400,10/25/17 10:39,1,9,absent,807.2490181,blocked,3016,807.2490181,4
no,401,10/25/17 10:39,1,9,absent,607.1783223,blocked,3016,607.1783223,4
no,402,10/25/17 10:39,1,9,absent,646.1975197,blocked,3016,646.1975197,4
no,403,10/25/17 10:39,1,9,absent,839.8802757,blocked,3016,839.8802757,4
no,404,10/25/17 10:39,1,9,absent,791.6459929,blocked,3016,791.6459929,4
no,405,10/25/17 10:39,1,9,absent,599.5585108,blocked,3016,599.5585108,4
no,406,10/25/17 10:39,1,9,absent,511.3516987,blocked,3016,511.3516987,4
no,407,10/25/17 10:39,1,9,absent,695.2629738,blocked,3016,695.2629738,4
no,408,10/25/17 10:39,1,9,absent,607.1143335,blocked,3016,607.1143335,4
no,409,10/25/17 10:39,1,9,absent,621.1261909,blocked,3016,621.1261909,4
no,410,10/25/17 10:39,1,9,absent,851.882129,blocked,3016,851.882129,4
no,411,10/25/17 10:39,1,9,absent,671.7451723,blocked,3016,671.7451723,4
no,412,10/25/17 10:39,1,9,absent,799.4724851,blocked,3016,799.4724851,4
no,413,10/25/17 10:39,1,9,absent,606.3608385,blocked,3016,606.3608385,4
no,414,10/25/17 10:39,1,9,absent,607.3873984,blocked,3016,607.3873984,4
no,415,10/25/17 10:39,1,9,absent,598.0457038,blocked,3016,598.0457038,4
no,416,10/25/17 10:39,1,9,absent,607.0014119,blocked,3016,607.0014119,4
no,417,10/25/17 10:39,1,9,absent,629.7438186,blocked,3016,629.7438186,4
no,418,10/25/17 10:39,0,9,absent,582.7951308,blocked,3016,582.7951308,4
no,419,10/25/17 10:39,1,9,absent,599.5266875,blocked,3016,599.5266875,4
no,420,10/25/17 10:39,1,9,absent,783.5464357,blocked,3016,783.5464357,4
no,421,10/25/17 10:39,1,9,absent,863.0883984,blocked,3016,863.0883984,4
no,422,10/25/17 10:39,1,9,absent,591.1523545,blocked,3016,591.1523545,4
no,423,10/25/17 10:39,1,9,absent,695.0497916,blocked,3016,695.0497916,4
no,424,10/25/17 10:39,1,9,absent,653.8354671,blocked,3016,653.8354671,4
no,425,10/25/17 10:39,1,9,absent,887.6252317,blocked,3016,887.6252317,4
no,426,10/25/17 10:39,1,9,absent,614.3981177,blocked,3016,614.3981177,4
no,427,10/25/17 10:39,1,9,absent,631.563567,blocked,3016,631.563567,4
no,428,10/25/17 10:39,1,9,absent,767.2918872,blocked,3016,767.2918872,4
no,429,10/25/17 10:39,1,9,absent,623.0704952,blocked,3016,623.0704952,4
no,430,10/25/17 10:39,1,9,absent,590.029298,blocked,3016,590.029298,4
no,431,10/25/17 10:39,1,9,absent,870.8745126,blocked,3016,870.8745126,4
no,432,10/25/17 10:39,1,9,absent,428.5760725,blocked,3016,428.5760725,4
no,433,10/25/17 10:39,1,9,absent,775.5642486,blocked,3016,775.5642486,4
no,434,10/25/17 10:39,1,9,absent,623.3733304,blocked,3016,623.3733304,4
no,435,10/25/17 10:39,1,9,absent,615.223814,blocked,3016,615.223814,4
no,436,10/25/17 10:39,1,9,absent,662.9612419,blocked,3016,662.9612419,4
no,437,10/25/17 10:39,1,9,absent,622.9007707,blocked,3016,622.9007707,4
no,438,10/25/17 10:39,0,9,absent,729.7762579,blocked,3016,729.7762579,4
no,439,10/25/17 10:39,1,9,absent,775.662114,blocked,3016,775.662114,4
no,440,10/25/17 10:39,1,9,absent,678.4520299,blocked,3016,678.4520299,4
no,441,10/25/17 10:39,1,9,absent,751.2587335,blocked,3016,751.2587335,4
no,442,10/25/17 10:39,1,9,absent,715.2644658,blocked,3016,715.2644658,4
no,443,10/25/17 10:39,1,9,absent,694.8882795,blocked,3016,694.8882795,4
no,444,10/25/17 10:39,1,9,absent,558.9916034,blocked,3016,558.9916034,4
no,445,10/25/17 10:39,1,9,absent,734.7752621,blocked,3016,734.7752621,4
no,446,10/25/17 10:39,1,9,absent,712.5844602,blocked,3016,712.5844602,4
no,447,10/25/17 10:39,1,9,absent,711.4131554,blocked,3016,711.4131554,4
yes,0,11/1/17 11:18,1,5,present,1655.355957,blocked,3032,1655.355957,1p
yes,1,11/1/17 11:18,0,5,present,797.0871517,blocked,3032,797.0871517,1p
yes,2,11/1/17 11:18,0,5,present,1526.890739,blocked,3032,1526.890739,1p
yes,3,11/1/17 11:18,0,5,present,2000.035588,blocked,3032,2000.035588,1p
yes,4,11/1/17 11:18,1,5,present,1103.446766,blocked,3032,1103.446766,1p
yes,5,11/1/17 11:18,0,5,present,934.1597878,blocked,3032,934.1597878,1p
yes,6,11/1/17 11:18,1,5,present,768.2125732,blocked,3032,768.2125732,1p
yes,7,11/1/17 11:18,1,5,present,535.1936087,blocked,3032,535.1936087,1p
yes,8,11/1/17 11:18,1,5,present,517.8757738,blocked,3032,517.8757738,1p
yes,9,11/1/17 11:18,1,5,present,495.752581,blocked,3032,495.752581,1p
yes,10,11/1/17 11:18,1,5,present,917.5372806,blocked,3032,917.5372806,1p
yes,11,11/1/17 11:18,1,5,present,463.3712513,blocked,3032,463.3712513,1p
no,12,11/1/17 11:18,0,5,present,795.8022326,blocked,3032,795.8022326,1
no,13,11/1/17 11:18,0,5,present,1013.667364,blocked,3032,1013.667364,1
no,14,11/1/17 11:18,1,5,present,814.4303086,blocked,3032,814.4303086,1
no,15,11/1/17 11:18,1,5,present,725.266163,blocked,3032,725.266163,1
no,16,11/1/17 11:18,1,5,present,486.0392087,blocked,3032,486.0392087,1
no,17,11/1/17 11:18,1,5,present,672.1546913,blocked,3032,672.1546913,1
no,18,11/1/17 11:18,0,5,present,655.7836928,blocked,3032,655.7836928,1
no,19,11/1/17 11:18,1,5,present,1518.658018,blocked,3032,1518.658018,1
no,20,11/1/17 11:18,1,5,present,862.5150264,blocked,3032,862.5150264,1
no,21,11/1/17 11:18,1,5,present,631.4790462,blocked,3032,631.4790462,1
no,22,11/1/17 11:18,1,5,present,702.2070838,blocked,3032,702.2070838,1
no,23,11/1/17 11:18,1,5,present,575.0767444,blocked,3032,575.0767444,1
no,24,11/1/17 11:18,1,5,present,662.9689741,blocked,3032,662.9689741,1
no,25,11/1/17 11:18,1,5,present,631.9273136,blocked,3032,631.9273136,1
no,26,11/1/17 11:18,1,5,present,574.6058926,blocked,3032,574.6058926,1
no,27,11/1/17 11:18,1,5,present,539.3960298,blocked,3032,539.3960298,1
no,28,11/1/17 11:18,1,5,present,695.4331135,blocked,3032,695.4331135,1
no,29,11/1/17 11:18,0,5,present,535.1470711,blocked,3032,535.1470711,1
no,30,11/1/17 11:18,1,5,present,575.9452197,blocked,3032,575.9452197,1
no,31,11/1/17 11:18,1,5,present,526.7795274,blocked,3032,526.7795274,1
no,32,11/1/17 11:18,1,5,present,462.7919256,blocked,3032,462.7919256,1
no,33,11/1/17 11:18,1,5,present,662.7160965,blocked,3032,662.7160965,1
no,34,11/1/17 11:18,1,5,present,919.4908367,blocked,3032,919.4908367,1
no,35,11/1/17 11:18,1,5,present,687.4098119,blocked,3032,687.4098119,1
no,36,11/1/17 11:18,0,5,present,510.2702847,blocked,3032,510.2702847,1
no,37,11/1/17 11:18,0,5,present,734.1935276,blocked,3032,734.1935276,1
no,38,11/1/17 11:18,1,5,present,886.9835814,blocked,3032,886.9835814,1
